mean_accel_x,mean_accel_y,mean_accel_z,mean_gyro_x,mean_gyro_y,mean_gyro_z,std_accel_x,std_accel_y,std_accel_z,std_gyro_x,std_gyro_y,std_gyro_z,max_accel_x,max_accel_y,max_accel_z,max_gyro_x,max_gyro_y,max_gyro_z,min_accel_x,min_accel_y,min_accel_z,min_gyro_x,min_gyro_y,min_gyro_z,mean_speed,pothole
-0.09366853880614438,-0.004697076056653371,9.923004019275787,-0.011288442191372991,0.008430437033225604,0.023588670418933498,0.2708805095770927,0.187119024263722,0.28268099039985795,0.056134237332319925,0.036878579278260916,0.04810481244053869,0.3813931431519976,0.24255519085308355,10.390504890259681,0.10066907196498545,0.07405750856494846,0.14176692274013902,-0.6013349460749017,-0.3197289116543982,9.486626999603873,-0.09147998473981538,-0.03767223968395183,-0.04691680101591125,44.18233262119883,0
0.014274257743370284,0.06333715358108857,9.768763508491627,0.01123903803682715,-0.02377617175362548,-0.00018475364335952398,0.2364278811891828,0.17744445411664375,0.2612435280353925,0.04217856943844354,0.040920227563613416,0.03573143298514402,0.5059778495889228,0.24998955756832142,10.129966525287827,0.08491064789001859,0.07621954217600736,0.04878116284434734,-0.3837982969858332,-0.2554747825167312,9.15618706862981,-0.04575756306877545,-0.07581395009371658,-0.059578878404685134,43.08936710671814,0
-0.038340071031659664,-0.050660802759147104,9.769320147273081,-0.011891149114344149,0.003392082660612153,8.208099948079189e-05,0.23329856043384126,0.22520674405273516,0.29488501957563396,0.05598561775998247,0.03876695888425454,0.05508332635369604,0.24562602684972165,0.2924567897669419,10.244265271630166,0.03712755637180345,0.05560451850499909,0.07443188100781861,-0.45611051522177254,-0.49767579798704703,9.399808675799559,-0.17342705808514025,-0.07177329244895218,-0.11033490495798248,47.86949633633848,0
-0.008433993682250101,-0.0019158495785522103,9.692266493596028,-0.005280943913390637,0.010876513252791353,0.012503588222600951,0.15650812987515308,0.20188261460603615,0.3301024879749711,0.04573095913241267,0.06561948443389157,0.05349131911621466,0.22147458019511418,0.3085206593566168,10.409474839543776,0.04194605974275164,0.13436433390325905,0.09322925526136101,-0.3330414829293922,-0.3226697626607935,9.333654438879337,-0.11504259110205511,-0.08956704728980028,-0.10116241393644775,39.94408449352486,0
0.003589841701416857,-0.025894875887637586,9.7366056710411,-0.01059473109413619,-0.01160759513044275,-0.000999796405261745,0.21500682000176072,0.16266190957588933,0.1808551867996573,0.04647653681500104,0.07741220769856988,0.04998791860794573,0.40001975843996923,0.2268739127879984,10.081668013303743,0.06941581466618572,0.10889623175580071,0.06582159582582688,-0.22434675659923375,-0.3165332559068654,9.499950835397852,-0.08142219896931564,-0.13779417199252542,-0.09842719399744727,44.68572718938002,0
-0.029033220660583565,0.060632630550931224,9.851700845963911,-0.005805284770562257,0.02013723825663914,-0.020151700162482973,0.25370911493845155,0.1286996967423515,0.3937174818331868,0.03871517752184204,0.061042358349588356,0.02394700264263623,0.3649204576293345,0.27130795905268695,10.29664531957414,0.05883596460943711,0.14537120661105135,0.02330694588361315,-0.34742710712716385,-0.21357567158491633,9.268532386893579,-0.0919455227367397,-0.0846662785371321,-0.06858808280612934,49.59975950374322,0
-0.04174540680593734,-0.007725662599928501,9.901122400089562,0.013842076118878444,-0.012580886262721419,-0.023888859145163206,0.1511889549423001,0.15710190299153767,0.38074616138231376,0.06201234310367364,0.038539738592430955,0.039232928989171835,0.20071999839764226,0.22525980434049325,10.409035549355364,0.14345858997178215,0.05902850902190863,0.016872076275956088,-0.3257688736869569,-0.3598176242186343,9.229837503959207,-0.06958246550440536,-0.055352995374220726,-0.0828912410673336,41.60658571306618,0
-0.025334330219296507,-0.029505168562465173,9.808070064745394,-0.02795568989515862,0.015394670319933513,-0.018496662873013117,0.22627580183850496,0.24374622019090192,0.2750314164106139,0.024327560722244297,0.04098877840015451,0.0503925618615683,0.3405366981094904,0.3191228786867893,10.278425862581699,0.010352829693687653,0.0581564911018169,0.07080623871358227,-0.46196315280086475,-0.38194182573386587,9.349308589594902,-0.08099772860463711,-0.07310260202069736,-0.11444592004434398,46.6252763416889,0
0.10116962176185698,-0.03121942730260574,9.736651006353995,-0.001605915642127098,0.017185473464095834,-0.022361172602173844,0.1664407537293242,0.1904639403589617,0.38007330437715214,0.05126952214352011,0.048808576115954495,0.04944534776041999,0.2940791503783697,0.2326983431500117,10.402868032310483,0.07209938643821269,0.09915900147788227,0.05367503911714109,-0.21715557158470813,-0.42864764876660744,9.029125130329998,-0.08297928481174552,-0.0614548549035595,-0.075756258872472,48.551803609092886,0
0.0370530129682776,-0.1382743298138278,9.829115861996073,-0.013381854796459198,-0.01011540812767143,-0.010731738852756193,0.21064561845859464,0.2390368950149532,0.35403072277107,0.05285790346557849,0.04821300301586304,0.04566873225978243,0.3217169968580909,0.2112699388755603,10.411318200096156,0.0785326502316064,0.05968810161592051,0.05068054843429296,-0.34980396375811584,-0.5746835745322114,9.174741067236518,-0.08183834336574725,-0.07428972365690488,-0.09882202662511125,48.13826249161311,0
-0.038401095601113544,-0.029107742366291833,9.864178578709533,-0.01038083086724758,-0.013510076826529998,0.012553870924298032,0.23268196135815133,0.2134927479960305,0.2672154144893263,0.05283494474464051,0.04643280696940307,0.064471903638628,0.3608033210572282,0.3523552253680946,10.164770014236174,0.07954535223925728,0.07537965740583792,0.1380359247863826,-0.45130620093932033,-0.32641918683177507,9.300128787589294,-0.08846433675350995,-0.0936349012125925,-0.05304139932865103,45.292911173302535,0
0.15047998309103316,-0.013434503192387875,9.869763914889067,-0.022317673874831107,-0.003306209927651771,-0.021862527800876906,0.19894601734291878,0.1948340781131807,0.36733305003806827,0.04723344217577981,0.03429636179636562,0.02951213130086744,0.47523702024058734,0.28404962519910065,10.541332706538823,0.101579498649669,0.0655477315581087,0.04073532811915082,-0.08050782704921261,-0.38320812436047297,9.390615619532221,-0.07608156319885347,-0.06448862278288622,-0.059199838027333085,44.00522900288545,0
-0.01316270339158862,-0.1159602776612794,9.918484952161771,0.03694015990042968,0.01488183995101312,0.00024336457886202297,0.18799842287321014,0.12885111166516652,0.3457592885347637,0.048799083781296757,0.052216681926121486,0.07175832136388385,0.2962640149643463,0.06206078674852588,10.526441364384556,0.10663539549403048,0.11408697234212084,0.13208633083085414,-0.328199626806855,-0.37830379880075177,9.417163579938332,-0.04307387955936639,-0.049523479122355406,-0.1357007875796926,41.260885587701836,0
-0.040806028410278625,-0.07128776432973302,9.707286727251237,0.00700562761392867,-0.01953035205440231,-0.019515716599138856,0.18893666646230659,0.1278635846406502,0.21744177924066854,0.031232651144783657,0.058180461890703895,0.05398008978133199,0.2082507611833854,0.12697911455376645,10.004786713175223,0.046814226974020434,0.044766871571692075,0.07801908635303606,-0.3153861046001404,-0.28096805271796277,9.174286240404493,-0.044616802306206974,-0.15590865249078265,-0.11022326387185469,44.00471124661819,0
0.12056968244351154,0.01531656436657707,9.751634447278214,-0.006354673851933798,0.017038635794717115,-0.01964726860067666,0.18550620837772916,0.19722097900615623,0.23601697227560173,0.04556454645436328,0.03976309893370501,0.05449904803528773,0.4092065631871473,0.22515922953837608,10.281591430114512,0.07402993126725556,0.07189573405317987,0.06287891295676067,-0.1727224631506794,-0.4176783850508229,9.303134550332953,-0.10018360633620836,-0.052258897460795366,-0.09107019622873852,50.14398467691925,0
0.09215576110376818,-0.08579037234652576,9.79071756730063,-0.005164863785143403,-0.004255910559657924,0.021537894919266266,0.12098390767536295,0.13111351535830693,0.31092046112579746,0.05257276532692042,0.03802218708373801,0.054827691829262774,0.349211109761311,0.07431387395439835,10.355843318113413,0.12601031065158572,0.04428718413154852,0.10332320699608595,-0.07583026196590821,-0.32457442867368247,9.224253093722918,-0.06991470312075684,-0.08478288555255958,-0.07618461443580316,46.090167443394456,0
-0.10473501631687018,-0.08012317465503369,9.724516003613306,0.021756672073641504,-0.0048524372499795035,-0.009074802366631239,0.19200187104443228,0.1789577075929088,0.266987399653106,0.04830544648645958,0.03167783695133866,0.06291714065005531,0.28306523097550845,0.3858799764122656,10.12009737290632,0.07374160577799675,0.05211830915726935,0.11304335128231242,-0.38836577548457935,-0.28179154526265454,9.337096050086052,-0.08435387003130296,-0.057748237226146776,-0.10787678363573944,46.917297350195255,0
-0.07534276101966124,0.0018344193270878912,9.712309487049009,-0.01110187832840788,-0.0018122701578595743,-0.01584435766068997,0.18240794952609946,0.17357200879075224,0.3006640084896658,0.05875439222684528,0.044700709691879115,0.044896421123089024,0.16469043969336183,0.2646540542207983,10.135361994125958,0.08310490491873876,0.07364143142280147,0.04963887112067974,-0.3440494441192701,-0.30344080045749405,9.269448117848025,-0.1293023764151178,-0.0881531733774022,-0.09165269400845895,48.2452154682117,0
0.025051349651578687,0.05686340270242811,9.596717419452105,-0.02950518312953231,-0.0220695526849502,0.0008013850600660857,0.2375766532283311,0.2594180895366116,0.20520252549510415,0.04618999290778605,0.02730508798724413,0.061770336692637304,0.4727755848189806,0.563387726587822,9.954704693488944,0.05734080550019221,0.023533619471878174,0.0891769918813666,-0.4046136017481148,-0.4740112986645647,9.244039958046159,-0.08061060871225667,-0.07609621296334021,-0.10526784075681211,45.15911099482112,0
0.10348592616800092,0.02770975790542768,9.781415591455431,-0.004758803296861132,-0.020594339036308383,-0.00990374980640236,0.12168665409434802,0.1762570476867803,0.3174026902087121,0.05481634194597517,0.061974638404577884,0.05207228752198365,0.2835763171700932,0.2170996728169835,10.436134626163787,0.07638347515148508,0.08546837027276949,0.07164514950059023,-0.09340779257659292,-0.3092550363380121,9.475504556361592,-0.07081946346566424,-0.14556517702903046,-0.09136565848929451,40.44973209370073,0
-0.02146559634821562,-0.043167126473220754,9.806772878232707,0.017146447138035852,0.0005829571766665272,-0.007918635608810884,0.18759784540880334,0.20962858942225768,0.37866396994128454,0.05452036354690435,0.03754909043101561,0.056613262625028825,0.3074105097543869,0.2393283706265828,10.670375844673593,0.09215940697856284,0.08733507396133494,0.09823746638701916,-0.2603325484962882,-0.4121628815056073,9.283207560614478,-0.09524471873623755,-0.03443901436364967,-0.10264715098595299,43.02026913941519,0
0.03218595035879525,-0.04144374601724698,9.712000804519962,-0.0278148607527292,0.020903805756042157,-0.0007010609314151674,0.18553724649049796,0.1535354186718249,0.2051277310421225,0.05657715932112156,0.033769853732395355,0.05786610059017136,0.38936507410205595,0.18094715814852447,10.169311322434664,0.07767175012819924,0.07996373567090159,0.07718211055209187,-0.24492203768473814,-0.4006319849531808,9.475903082547516,-0.13142572423950058,-0.01637416165607872,-0.0800769392303117,46.99307666228422,0
-0.015491225843782788,0.05590209128374102,9.839032185412808,-0.03216348803436304,0.013994735865855501,0.009778560200043675,0.1888786151234097,0.21498755323575733,0.272637860007456,0.03421304850146708,0.059373983359817376,0.06884552268310232,0.2830846173932755,0.45500213589268673,10.47609630324626,0.010944610668240224,0.08286304110318832,0.07170077846540958,-0.28728080066924816,-0.254750430662215,9.383858100539916,-0.0843558124662792,-0.12774049703792698,-0.15449484803255573,44.55607559038632,0
0.028210709882328756,0.0827675163316883,9.839278623887916,-0.02271028089803163,-0.0263945782129942,0.012925829295645863,0.1926645747477433,0.13601513615058508,0.40317036608368234,0.049785391977023793,0.04123558845541082,0.03603462427471346,0.26343391811189426,0.3584843988332913,10.362578880054148,0.06134379693236608,0.052493206348155554,0.06459880258774559,-0.2755116512870163,-0.18685567534061043,9.208240293100467,-0.13528687127802194,-0.09158160698890344,-0.038325140866452986,47.20263214902846,0
0.0012353227091742524,0.003989433536603443,9.9597403634247,0.0020071429402198524,-0.008514436342725966,-0.017610173772807537,0.25672360935492644,0.14709737182804167,0.35530702745835485,0.04919367548870868,0.059073973138557556,0.06096351706276201,0.3187231687791031,0.2810673954390787,10.37921909900657,0.0879630569330084,0.1171627100753589,0.09981698168672831,-0.5109818574828974,-0.2517110332470761,9.285401583123207,-0.09702855809228916,-0.0891173655974383,-0.10342617324459108,42.67897924136294,0
-0.06309534482828424,0.07641327367446603,9.687931344367009,-0.006064082365231071,-0.03447961321494174,0.018545924686819884,0.2084073316139666,0.17317327381231845,0.2411944254222743,0.0641829671129631,0.0577025229544509,0.042219695923847424,0.2728978203937739,0.34101890928455975,10.04930261331231,0.10270875588002495,0.038871184496667203,0.0789547334565163,-0.3580170850905038,-0.20194507353980828,9.30206119365644,-0.09705998860838676,-0.14356145858111008,-0.043062113063846955,42.029469412094265,0
0.028378752365790592,0.036672113771329305,9.840458905948264,-0.00030446522157060243,0.01106463360810677,-0.03667699433629033,0.1606293604255818,0.1482421043231102,0.217640944622484,0.04743865891101773,0.04439405924525178,0.05064905243732775,0.30476292269815064,0.2321753543501579,10.211644866562242,0.07096285921664708,0.1027786850425922,0.05144737879225639,-0.2543963202623365,-0.15352353201057414,9.469253526158663,-0.11964832958955829,-0.04451078600733336,-0.12309890090906948,45.983462343725364,0
-0.09873836222050804,-0.04644806142430201,9.66678008950434,0.0027988502793127147,0.013286802651298252,0.017768016300499682,0.11577147431634971,0.26336180533198417,0.21899760838646015,0.03951129571076675,0.03943625083060436,0.03785380235551839,0.07233388811014808,0.45772632875369185,10.025442152809447,0.10076442639865109,0.08831059978552262,0.07508638978171041,-0.27702119018997934,-0.37498907305115237,9.238328079051039,-0.062038206038925264,-0.03357151437768408,-0.06325152106443711,40.87128871385719,0
-0.08602950381221572,-0.0643642625520785,9.94092440093956,0.0029078164795364853,-0.0402626349530027,0.019037961900594907,0.142289444990275,0.1392447119467948,0.2356458771877787,0.028322371186575226,0.03938767861198814,0.04633409248788292,0.18146614972367803,0.19470284802769222,10.33833986843173,0.05417444473911153,0.04944473495106562,0.07655077718845306,-0.33792115455651217,-0.2902870476516825,9.58526722901317,-0.04169526831839107,-0.09764959141530875,-0.06821066635149556,47.50429400377196,0
0.010634244966220856,0.026336325657933098,9.682952080308942,0.02423013999848771,-0.0375931494164072,-0.027056431150433453,0.24122704246082577,0.18035993417540847,0.16305110152465113,0.037557548072658486,0.054727011587327644,0.0504118089655163,0.37093800511415187,0.3069090670909247,9.946303297128843,0.09586213197457817,0.04864264980483471,0.04626063968599124,-0.38440194522795057,-0.3409253617251372,9.42087159572327,-0.03311266140222235,-0.14823417819852877,-0.10773963977795405,49.73307470530568,0
-0.06298899662246596,-0.11474078435363007,9.81752826968652,-0.0295800979405071,0.020473371792173085,-0.01000706589918518,0.18613462572197903,0.1341508646218389,0.13302508448584915,0.049479617265500514,0.038517002917943056,0.040219455155114936,0.20080983422768908,0.10877044977719535,9.996014923265946,0.05975145507874438,0.07142192975897751,0.08501980333421877,-0.3518632595799833,-0.3368934650759854,9.598282283014452,-0.12705492204815463,-0.05902354299754658,-0.04980236794487114,42.94849285583011,0
-0.07364249429391015,0.08301412917473086,9.770567888576347,0.005079315716893287,-0.01062298515665174,0.02111588172270599,0.12180567912587298,0.15614919278380057,0.3040587358163049,0.05124880811030731,0.03789208609084222,0.024888207555265947,0.12145634359518934,0.3049771023199665,10.182529346444191,0.07776447030031082,0.08174882109197851,0.0688092013488894,-0.3057227670921358,-0.21660498008104623,9.19230891880336,-0.12416390510459224,-0.05225355283905218,-0.018985157855832813,47.01810685757954,0
0.13584871698723217,-0.08218237902192152,9.936069686480675,-0.0017108237353455186,-0.015263970164612705,0.0034241106432696643,0.14116134442580652,0.19518628840766644,0.3982211629013097,0.058376627219285486,0.052973414271803757,0.02873830407361398,0.3311889097499623,0.25463436621342006,10.478435236992123,0.10811467769388405,0.055021403536097496,0.05927227945366947,-0.07498197848813165,-0.32807708305971195,9.355955381914427,-0.07111005498652796,-0.09456976666069215,-0.03434523698553096,46.24405604433557,0
0.0037358514869299366,-0.024846154072664932,9.768299992780271,0.011582325372656571,-0.013345627452232459,-0.034862140901787256,0.1304355951360087,0.15642106945864492,0.24339619843610083,0.05296001263888531,0.02637281418691685,0.042390957038351704,0.23831128566583415,0.362272486510016,10.047011462839261,0.09974586157883941,0.025136341168167698,0.008096269387796942,-0.21582680273741636,-0.1969520607360356,9.205233696618897,-0.07855695066878168,-0.0641185187818824,-0.11688064333059463,47.06221011707478,0
-0.012652688599174355,-0.0018036522030287327,9.747712671579453,-0.001923418528998187,0.0230338178569166,0.02328054312619513,0.21208117279488745,0.20008425461019144,0.2143520631437732,0.05056181630643543,0.04715575491490078,0.031346036956608876,0.3901029097369062,0.24338035230038302,10.208477106284578,0.06424106802682171,0.07811304802312895,0.07855913772541137,-0.28122337678450343,-0.3832143648861045,9.459288316877023,-0.08478131807911152,-0.09044392342116916,-0.01859055612560393,41.4762806245735,0
0.011665703102724924,-0.023717658747727365,9.764562225454503,0.0013131286523680701,-0.006412389147120908,-0.011222635438450049,0.20117405714017855,0.15460690498846308,0.23661016537913562,0.06536091898254923,0.03329931116449756,0.051108671416443235,0.3900073738685605,0.3419292472236741,10.099013398147655,0.1586959339533734,0.02838843494475421,0.12092612320589034,-0.2662483188229952,-0.2096233875614428,9.246103450782044,-0.08066903364727211,-0.0917650692471745,-0.0786257006086758,48.177801449813664,0
-0.03250128584686111,-0.13160657761355116,9.769342573561804,-0.027378165071272786,0.014694745358573916,-0.0016800356296702151,0.1634735107869338,0.18932758733241717,0.43655297475000526,0.04645901316991112,0.04495808179971831,0.046040819684213315,0.22008586512668724,0.16655636208646388,10.397509012289172,0.05056474141267406,0.10871940269172915,0.07553747644476827,-0.41901906298933,-0.4347298001467572,8.847306233036903,-0.09800195393276181,-0.046859404292178594,-0.08168834541473889,41.46097666555074,0
-0.029511319975324336,0.009605342033684374,9.798318044326408,0.007184460558899407,0.025673158110442195,0.005157349207908994,0.16601743046654285,0.23348962109950758,0.30696067563867163,0.04096829790196289,0.05058859901076113,0.05104479396095363,0.33971860497018713,0.3574762783367296,10.33280063673496,0.07909478335938337,0.10048969523235483,0.06986900531642999,-0.2705515791163351,-0.48145587870916007,9.359918856668385,-0.05064208140393768,-0.0670942552593882,-0.0891256491926785,46.079600367038054,0
-0.023591419488986763,-0.019850232215949924,9.855512138510775,-0.021057751583915558,-0.026535583679168594,-0.004629804780859844,0.1340658624668504,0.10784900978053501,0.3724722133181746,0.025620722885680534,0.03351060729221242,0.031009657240972776,0.2321482563857921,0.10268271573955182,10.308223836497316,0.02878687416786297,0.0451245157560557,0.048870117820776965,-0.2440198905795312,-0.25938012476296657,9.240151563913221,-0.06731173063348539,-0.06340054778289586,-0.07234329728836207,45.890020349546205,0
-0.007487788012240332,-0.1213262251253003,9.6869279787611,-0.006464241106555602,0.002709646758426061,-0.016875466186881256,0.1522146957511319,0.20767052904894193,0.3526529834880249,0.045492688662162925,0.03187946531078034,0.0709264198663417,0.23899560833503594,0.295420832928048,10.16188510861572,0.07914921014433594,0.05952194244156799,0.06499229089797708,-0.22155606622431834,-0.37131137669908887,9.001474531069551,-0.0835335716881982,-0.05377687125238115,-0.18912613909379142,40.33807897833977,0
0.0041019092014899184,-0.05069998664047272,9.846574003084507,-0.02778414982316494,-0.018548207532928997,0.0012920917522816987,0.14235297710091221,0.2253181991613865,0.20109156694509128,0.044416531795529575,0.04830657500676793,0.0406880249999206,0.3084718720178279,0.31254170155732736,10.16659884640515,0.05827008775556325,0.06917659376269311,0.06594482360268168,-0.2041744565148612,-0.523147884206263,9.4779477383056,-0.0955495921341481,-0.07701910734843272,-0.05941469430240373,44.82728108034475,0
0.05758380715773531,-0.12869552676036827,10.001424347921182,0.0009599857749825094,-0.015533678507166249,0.015400902638856578,0.19813187556869266,0.17955534854189076,0.37593429079661334,0.04446439904482935,0.055468936639777734,0.041199106588417286,0.3931452733420624,0.14563383057930476,10.807677986516586,0.08283380107790123,0.04995823445063739,0.0693857196194644,-0.23614060017132546,-0.4321211426766959,9.555722038387406,-0.09728830563958113,-0.15174399395533286,-0.06482829575452957,45.51279323025034,0
0.0670407453171136,-0.053183743696874765,9.952285325138046,-0.018421317002079822,-0.02284981141686788,-0.026126261504592248,0.22001053422105135,0.1218713314882775,0.35956311382720574,0.02699205012353791,0.05163277256918781,0.040168488699820676,0.45697181182682345,0.12009203957316339,10.489716247401038,0.02655350483841916,0.07178448440116203,0.04502486348872049,-0.22939815404999153,-0.26506971469958646,9.438161641772037,-0.06837293018166728,-0.08579187917391856,-0.0904148891581157,38.60440614237014,0
0.060707200904328594,0.005951087416202953,9.969440287918202,0.02493806389189869,-0.030333860542200875,0.015963249239386985,0.06817490821503469,0.16600063798128623,0.20189005304203334,0.0669031904058127,0.025541362065526565,0.039590935284702845,0.1609907679090797,0.34341255334752047,10.383669080194913,0.12157267618751477,0.015813838174817126,0.06895840387258075,-0.04768545253734804,-0.27296681920984295,9.714200463416796,-0.0832407459191364,-0.06600929301417606,-0.07635315501834154,46.619295032534055,0
-0.0012627079167444836,0.05109780928886455,9.823156106501314,0.00806776748174981,-0.00034916776586977336,0.013101596456343696,0.14740035878225285,0.2658324545404583,0.22106909454032725,0.0447092527684684,0.04283439151822266,0.03078812948389609,0.32458888178634976,0.48571993952454995,10.31418213780589,0.06275039174510191,0.07134368883367007,0.07019887121617009,-0.18693980869146765,-0.45510962462281834,9.480499284699512,-0.10290693624284358,-0.08313001379547534,-0.03768877845037697,51.60375138030938,0
0.036750157558453386,0.02476461801101698,9.737696423231132,0.01855880827429807,-0.009151393188600828,-0.006202071512169558,0.243311123669592,0.1586074904976542,0.3099860927910052,0.03997886937833838,0.04813704188070899,0.0506405045191911,0.3201654031188189,0.42222956477421986,10.395007759762626,0.09772665180961926,0.05673498964190295,0.09920862526082418,-0.42806286316313796,-0.19738567668364193,9.214248924589056,-0.03861041532606932,-0.12033647923374598,-0.07771362493129748,38.86291832714113,0
0.04252123330082398,-0.0030688016255631793,9.736420900414497,-0.0028933933137690626,0.011489460307227027,0.006681991411203636,0.13767196437745832,0.12562788813092796,0.32927555911651984,0.05210948102754859,0.07854959306571663,0.03668399983065956,0.2411772229842899,0.21205148156305503,10.188843689156826,0.07014240162992273,0.15497433399015687,0.09397331869426298,-0.20093828553489776,-0.2595619041124921,9.257244959930304,-0.07675170071215737,-0.17056166954566215,-0.04797879018280813,42.58800035099964,0
-0.0023411108241815524,0.11582826096458317,9.892190926723863,0.010798867116422108,-0.006536135369966463,-0.0034584535655375103,0.2416581978223928,0.17113705470490392,0.35638669118036587,0.04860296706523253,0.05408866458089765,0.053836114401456796,0.49579625375334313,0.4135766609105095,10.331015557500582,0.0903037387778994,0.10757994162203416,0.07416366318297896,-0.2602657481014585,-0.2560802311222449,9.208245790335813,-0.0562899461584538,-0.0904052868564495,-0.10864690153020098,42.80553878608101,0
-0.032914053098345844,-0.03431295816360389,9.758955915413837,0.005594365531578734,0.005571290050963845,-0.017717707081693037,0.24496435852198156,0.21095796120063243,0.29511427404960683,0.052935466228825216,0.034201621891224034,0.040929934292728405,0.5600181586165093,0.26502369014573696,10.303461412258905,0.09251302590763975,0.05985551090758841,0.05834429110031767,-0.30806074078922324,-0.41033126595114866,9.401536728603647,-0.049888908529611004,-0.0449210739212678,-0.08730909609724408,45.16644717407117,0
0.004499818497297646,0.13655422553982274,9.729802135558916,0.007185916927464726,-0.0016825209378191653,0.005960978191316432,0.22088134777421378,0.3151445002164968,0.30684316882589935,0.025877654978201225,0.04844679153236198,0.05527832460139362,0.32621516270573114,0.6042688516770071,10.238828705005027,0.03832507994762044,0.08551138252010566,0.09818995855203412,-0.316957329205955,-0.39660867581173065,9.35531095695067,-0.05721625994603572,-0.05889402176548647,-0.07658216829704644,41.686955220941364,0
0.00335029510064407,-0.09355374626705892,9.741347846103979,-0.0020654928846165917,0.0018652642827131714,0.013189720221546764,0.16164311579695492,0.22282483874904652,0.38566879626517986,0.05719517744120102,0.04013037196874055,0.033780626583510664,0.2684653286598261,0.24053781823780285,10.346804085430062,0.10190698657751468,0.09427352794548335,0.06409492288180334,-0.30730479433066854,-0.49568814980265774,8.950120396858066,-0.10097521623101423,-0.050759705650382736,-0.04125706271779096,43.56088791283871,0
0.07300445643378271,0.015634496950422398,9.768595481708882,-0.004819765254074408,0.004207448609562929,-0.00011023876395616916,0.25965532565112337,0.22285216579158645,0.2644078347312863,0.042489340687536965,0.05162305550262853,0.050892352130980804,0.5262963490553642,0.3763161988514947,10.361028725302564,0.06009239684851715,0.08721426105814231,0.06484611372699214,-0.38035175588454706,-0.3061340506598057,9.34356057225497,-0.08344081732971632,-0.11281792406206688,-0.09684709799894027,45.325038884342185,0
0.0542784434814935,-0.01271832236702577,9.794811484897263,-0.03168113772998436,-0.0034857951451259957,0.020344403660780542,0.2975915622890824,0.17069669453112532,0.25764270849463183,0.044107712397165565,0.06521056651877391,0.042451226558692566,0.4216497286727589,0.2825294359389016,10.163635654197803,0.0501736860057887,0.08451139887107717,0.0964767187340411,-0.48900805708089606,-0.26583015472970495,9.466971972653266,-0.11239771244570479,-0.09766009604620945,-0.051443707421080336,43.961812993045044,0
-0.031564717053261054,0.04518692450945796,9.724803417265552,0.010780926918355017,0.025235260483719768,0.00563039347595805,0.18385379339673738,0.2098285338739487,0.34836118840876346,0.03996311203288185,0.041137120778653266,0.04508591431273249,0.3821623804698016,0.3704729975374852,10.377980255116286,0.0732015780006797,0.0905399173248248,0.06857668033171281,-0.3225304973555747,-0.34230376632764525,9.128782356443324,-0.07028628078519784,-0.04893037941655467,-0.05550108463047947,41.568955911819245,0
-0.02370124368801397,0.02902186069481007,9.93086607736149,0.012686069722865784,0.01608571709113199,-0.004638989763134736,0.20328721304257855,0.19203167227414508,0.297364602399896,0.05083691697834853,0.04775474232005266,0.05033563871620948,0.3114957436767276,0.44255233884393813,10.400320079717998,0.07478237987653659,0.08171000049016876,0.0783919963606477,-0.3416898523008194,-0.2544740840096049,9.43604525263917,-0.0940488088553423,-0.055038226358396,-0.07280945324894093,49.58613167444401,0
0.034896167774661334,-0.08512269319095869,9.793904194420486,-0.008599762816653696,-0.006841816970068357,0.01404813624949199,0.1948974257789799,0.16713636330192175,0.24494482742376716,0.03389329915485971,0.051155066498253285,0.06435905587866272,0.35031689872998584,0.10274637911970388,10.20057166418436,0.047932573781088776,0.08729279626870483,0.10727474370368598,-0.2796729704068352,-0.3987555260578024,9.2956910706987,-0.06298587825817557,-0.09613671392626057,-0.06600400539593781,39.99576935793597,0
0.11636523598027002,0.03705979746326345,9.730704540532193,-0.011394595037453627,0.0018859784875978087,0.017638998139865268,0.20394137332211024,0.1935027545984056,0.2534775216685404,0.05641675173036749,0.04370596422147119,0.042419506936358445,0.41725230947808245,0.33008399812316147,10.158354872006548,0.11957545637805628,0.07534272436031185,0.07087010461908522,-0.3055102639628457,-0.39775569588029813,9.333050858849571,-0.10205083018923711,-0.06932721965476217,-0.08303439183066565,43.93765243607193,0
0.005881012586521464,0.1365740824871419,9.666121879879134,-0.012679497017898753,0.034668817886531526,-0.006343268057801013,0.25818879484736096,0.14375988472689474,0.23277749225840705,0.028537855002802644,0.06631256736873116,0.0527776992396951,0.3762810937309995,0.4268939852532134,9.935995874827809,0.032645709440137914,0.16276049774289145,0.08769220285236495,-0.47436734301989864,-0.07912499475677516,9.282306025484282,-0.0735040629597049,-0.06453958039803041,-0.06877745208382305,41.55889585398027,0
0.01929608211396734,0.004216272470371448,9.615679873649507,0.03164145958601623,-0.005376569884674966,0.003793375251835182,0.23820538775275898,0.1648204309524796,0.30095405667782205,0.046903244687601875,0.04027962282997314,0.05567953904346236,0.40314649298004546,0.3570407657403593,10.083389102560563,0.10118144789443957,0.04577980456559033,0.07746992852405701,-0.3720300278806951,-0.18130496123904066,9.01610383294456,-0.04524899445813744,-0.07193670413146726,-0.1015711430181703,46.20467180528188,0
-0.02325658191484958,0.018384951514579053,9.83238475032939,-0.01296091589345472,0.011615944467195669,0.0023632019059522218,0.25230874191281943,0.13537841641074375,0.23616823801475081,0.03901458375631192,0.04863763064259624,0.043715052564682735,0.547682048223927,0.25988282249115147,10.114670987819878,0.06458862380144213,0.08638404230175091,0.08290796675396626,-0.29539412103929535,-0.1370412568016414,9.332229974781848,-0.07341025565012106,-0.0977422570799457,-0.07455197369091386,47.61580937562768,0
0.011210986668892992,-0.04879165023622166,9.864813737662208,-0.005384170361903818,-0.005918830889284457,0.027606327436894416,0.2403638899766588,0.22356137295134673,0.36697816039077175,0.03717178351836236,0.0384189581377308,0.05241649952232855,0.39069106324564734,0.23734233531732363,10.502977127883488,0.043141903898361526,0.055322642840941086,0.09942476209291636,-0.3263977792327151,-0.6014169041549846,9.337081460789754,-0.06705050274626172,-0.07059801664776938,-0.06662339707615238,45.71634969505875,0
0.046098991276151316,-0.13052959808276438,9.635722678866475,0.03285410453640732,-0.02472876986098233,-0.006830920550737247,0.18887281106773243,0.2593018693348682,0.2064918818363966,0.060029296475861124,0.05740894016486142,0.03891661038632383,0.3672509934501678,0.18914376337225214,9.93882482794987,0.11179930630882395,0.07607580013625491,0.050108865646872905,-0.19610102115771896,-0.5187298155328064,9.282087397758334,-0.09478152923172302,-0.10004968331541537,-0.08048013396678202,41.35018737131676,0
-0.035704819807011484,-0.006359622679630294,9.915888352560719,0.021007346087865815,0.028816160199951386,-0.0037851276820475934,0.1978196607960654,0.20447665835870543,0.20874176967619423,0.03848256489737212,0.03855356465236993,0.053834847348222234,0.28412526230716356,0.31348824993533075,10.191602835888268,0.09569002456799433,0.11831075319815615,0.09759924626599477,-0.38625160220013227,-0.3783100192197432,9.485909945780955,-0.05117547817084908,-0.017001065982058368,-0.07471494359539363,47.19851391874352,0
-0.010481147247716188,-0.08696621278562267,9.963105409371247,-0.0026966368717299565,-0.01244490478088544,-0.015611106051619705,0.2364789066928925,0.14363458611481197,0.23751395020279212,0.057133027246629366,0.033636090325020206,0.05201856803953102,0.34067200739182946,0.09873924098744685,10.430109664930361,0.08517696571880577,0.04297938825195448,0.09567660156488542,-0.410815274843218,-0.3314102436362877,9.56456326336657,-0.13567228131547135,-0.07606990642950268,-0.08664832165742367,44.318379723766455,0
0.015129965767923682,-0.03729894763367978,9.747100847025768,-0.019520499670045023,0.011201357543631867,0.019594342119102874,0.2227629279682936,0.18353494335962114,0.18610860452116054,0.0368732004485516,0.05798885497101425,0.053511408459401645,0.4340013716389872,0.15612173472597884,10.137200583126605,0.03932777063626848,0.10317526406018036,0.10640451268908696,-0.2939851911286117,-0.4273188285221264,9.486322412373397,-0.0875738161135502,-0.09286542497631456,-0.07156518102281358,47.51893794264531,0
0.04111420499029012,0.03538607526227795,9.80281713849747,0.002258414017344887,0.021979621383060272,-0.0005845667420987362,0.11669630817423075,0.16596035147043317,0.27306353516080334,0.03723858037209793,0.045124806849853226,0.04547580519489693,0.2554399998367511,0.36320936043788143,10.261543010190097,0.054492098391420975,0.09068467309132468,0.06473881757933597,-0.18954662035726577,-0.1599322719317485,9.321527445443767,-0.0791526516456827,-0.04285803015303677,-0.08266261538355191,42.642265714886676,0
0.005863905020167963,-0.037117364599747196,9.681788144747696,0.013987805522240677,0.02699419858693019,-0.0357646690173859,0.10331496606458979,0.2331213934530169,0.23301134188316697,0.04794295246797789,0.03069955163319166,0.048201833111698116,0.18318138033757508,0.40233936756372213,10.224522630333485,0.12366368258352847,0.0714062793367384,0.05815908367032189,-0.12156192921900369,-0.4992866049330137,9.377806060950222,-0.038552325975311996,-0.019143211952426853,-0.10198326966351651,47.092737801910644,0
-0.013440894449603252,0.0891113008983665,9.827586981018568,-0.005230133673173908,-0.01256527194262696,-0.009388533027790096,0.16190380531475057,0.17096998994028315,0.2931053750159697,0.054610876883899324,0.03567532992628189,0.028920634152203875,0.18325982946485875,0.35710301419770274,10.315881811392682,0.10263828426758828,0.06135911353487164,0.03644473416024532,-0.3480955175808628,-0.10275929828509373,9.258894951958947,-0.11963833675900593,-0.05098681919240336,-0.06999354369648729,43.1656834963179,0
-0.06836242440095383,0.14065640520187206,9.777828624944046,-0.007433631591188761,0.0027242196393399572,0.0075203086715160015,0.2389407604645778,0.2406222753056799,0.3322490615868823,0.03539742582346426,0.03950638921015462,0.05668695270741914,0.19786123251722537,0.532084193065132,10.163435203568518,0.0382088379965638,0.05651479035349415,0.08677422067455337,-0.6460403126043381,-0.24763804733593814,9.187729166880164,-0.06857575993345297,-0.06313615747324999,-0.08383260893523212,45.81491021801129,0
0.02726816741696646,-0.09416165438534652,9.797529191910819,0.002144148122806792,-0.010871054956272427,-0.021283362482318213,0.22448621139788594,0.137449823852633,0.30658229101951895,0.035423251982822604,0.04619814634743433,0.07309710790414807,0.4203776198323115,0.22454843816209766,10.232050894305347,0.06710120888162731,0.09076572308621725,0.10972477436396272,-0.34481602977956954,-0.22242140128424462,9.293490885583472,-0.04719957772424934,-0.07403907084302695,-0.1476587728729768,43.19818562731036,0
0.016885537689868356,0.026434002729487937,9.714847475885083,-0.009363400967679226,-0.027457488500435428,0.014582707803994482,0.16780903997584,0.12114744551556979,0.31760505137900163,0.030644173042220703,0.04097073050219149,0.044688833681644995,0.2965401542417594,0.28450706524045194,10.149449165146127,0.04682849918814278,0.03874005157708735,0.06936985604012826,-0.27689080590910126,-0.1412924745111884,9.08437772062561,-0.05310447954701267,-0.08491337249946287,-0.06138087251622096,43.84520411382299,0
0.02917008911239486,0.0012806930720638376,9.943714381433852,0.0018794322535431993,0.02372003639524585,-0.010204511048020577,0.15627552025453229,0.24340576679172404,0.24229961070865796,0.06334440497384518,0.05488190300922246,0.06655718400765144,0.30918209725303636,0.6805695414487773,10.434926055358389,0.09506581490018358,0.1339080114014284,0.08003375861638767,-0.21429571017912608,-0.2406574623081133,9.62765811840161,-0.12035316995757504,-0.07091183952512645,-0.09195949432432232,45.20507729744108,0
-0.03652850510519261,0.03837357966991687,9.882334249342623,0.0001699733829145407,-0.0002413267999401253,0.010240188673492256,0.16291514337394994,0.22130864273330997,0.28473530724079066,0.03571430103838144,0.06000706349936026,0.06490023143112314,0.2623661066853395,0.36062627435662636,10.448733072748082,0.03585797422152969,0.1086613833801565,0.11867402681778211,-0.30156206805727515,-0.41694568060127335,9.51546195557129,-0.06901505336918705,-0.11371880538179253,-0.08534397891477963,42.951855687632445,0
0.040047031160821554,0.09543750940327898,9.63873400881775,0.011315292604519222,0.026380449697413193,0.008072204075759907,0.12375290825291478,0.19476921511067288,0.34699281455206343,0.03398809583726902,0.046638185703875776,0.035800543633312046,0.22643075451961683,0.4966788506565669,10.155755014082217,0.07556390011489661,0.10748827112220663,0.09264620081855167,-0.1293191609550642,-0.24658488291528716,8.989656210961236,-0.04046961372047503,-0.05991951075173632,-0.03638046933539388,46.610286593561,0
-0.09855785726558464,0.0196833058018043,9.774323315981846,-0.015057998641587536,-0.013132887503968491,0.0016731944047100379,0.24381829026921006,0.225126703452427,0.23229995777512472,0.05215492745184851,0.041484892416945,0.05417900126071845,0.3261809312264455,0.3518042563351822,10.132140326576254,0.07354168880838233,0.026115953969338704,0.1432662642762971,-0.48546272462532036,-0.4490094321540726,9.390825012924893,-0.10064783292643985,-0.09461525041982422,-0.0608236446113428,45.29079971967742,0
0.08822358556658874,0.0046977707159479,9.76297479963679,-0.00950606057012678,-0.011519310399051689,0.011882214020959724,0.15768027829207784,0.21448319716734418,0.26437766592597844,0.05190954491841309,0.03100464318681733,0.04201463726503137,0.43322602858256715,0.31643865723055065,10.078023985569631,0.07837875974094348,0.050514823353417775,0.06754307850395845,-0.17403000704669966,-0.2955662748614738,9.275357828859535,-0.1043392839975344,-0.07099434113457893,-0.09155656773784308,47.35369332313674,0
0.059426191746207724,0.07853491130691075,9.867473447860345,0.0020956543234127633,-0.005474521846511827,0.009957974746191933,0.28901449812722524,0.19436082983012073,0.16281774209851022,0.049361527364516204,0.06419473416684443,0.03941861639458963,0.607855835618671,0.38857212459429413,10.108709418822352,0.08282442296564894,0.11278797996194304,0.11208905076358594,-0.38287819411786483,-0.15536856408593164,9.61423935929292,-0.07732290550439491,-0.13500818489789077,-0.02347177176173579,46.30478091540024,0
0.0739994195959531,0.11572511494638134,9.581505343797641,0.00153709466541651,0.007602769289359657,-0.01201256010372446,0.1801782932634741,0.1316762587223715,0.26327129972131386,0.02654847685408747,0.03416529539323664,0.028713154313412727,0.3499574928500708,0.4361829279678169,9.978200329578792,0.03677993405803062,0.05982260381668422,0.03028757656137035,-0.28195506492636113,-0.06936663754692217,9.075732017626558,-0.06283928321333723,-0.044203829288769876,-0.06253455030326183,45.313451356919465,0
-0.008481080530474227,0.033932593611180215,9.720986861017682,0.009467809314028046,0.0033783409411207487,-0.02012709023209016,0.137164990383019,0.17932065093402502,0.35355726611482285,0.06162608258134504,0.07201547549822716,0.05101770405399557,0.1822733695018677,0.299320390643033,10.443944984501268,0.07571342693395357,0.09863196115304668,0.057840700446518005,-0.22078741365024046,-0.29137880474972544,9.267077704046544,-0.13108672162977977,-0.1133785202084864,-0.09986042017500535,41.02337320143597,0
-0.03289888068951635,0.07423204944989616,9.70171984492865,-0.011184111028584956,0.0027395169987083205,-0.00492908246212218,0.2005448137638556,0.17636715878526293,0.28499112728590226,0.04899905595597824,0.07266609766252842,0.025857088629392296,0.33711441087829425,0.40622712106940195,10.189044064722427,0.10961937024939516,0.19531337949661576,0.03127817633775216,-0.28515812351463427,-0.20799808811687315,9.249608916204469,-0.0655979818134301,-0.09811080703920257,-0.05556185949385607,49.36299972344861,0
-0.014837792962506674,-0.03136470929208585,9.848435105250633,0.01644495212283362,-0.00946201634790132,0.011190635125700458,0.11422720713709394,0.16520199175075384,0.3443027880792564,0.048383575915853134,0.036175129265869355,0.05911601623725491,0.15435671573487753,0.20833826864334007,10.592870951119286,0.08804781606460409,0.07772297044242481,0.12611621580784807,-0.18537182644326797,-0.40107123698359637,9.463732734340491,-0.06014375860315216,-0.03878147258082183,-0.08443259657836509,40.81915764442738,0
-0.0729884542217759,-0.0062929134547088554,9.68251541413342,0.016947997120228136,0.02112294271206925,0.016971883413690644,0.18704753463913554,0.21139690384064008,0.22906024922256846,0.058526171315452506,0.05466282393856522,0.042391256218538745,0.12721222345817088,0.5001742078693929,10.082375588179938,0.11393164309431232,0.11601641196448438,0.11770311576765158,-0.3953925688116148,-0.23723589181225574,9.348329794699623,-0.09993489054700885,-0.06052062278064574,-0.036678243747110616,38.17180359263943,0
0.0021652692652538996,-0.012322096767181528,9.793291398652238,-0.030527967315156734,-0.014453507821839401,0.0020658134632337115,0.15710478612786996,0.22319538190956995,0.3076423682655896,0.05126500859487127,0.028270025256107358,0.05984773385850192,0.34069098730920433,0.32584831967992034,10.410622512484784,0.03938006633006861,0.028891595833409944,0.08951393521043222,-0.20290288210834576,-0.3834343761877841,9.425020213178032,-0.13162356013203635,-0.07298457783087273,-0.12013819519961247,41.743547374787134,0
0.017263276191003235,-0.015161537333790312,9.769713861427812,-0.008741755390335334,0.0017185958831961515,0.020975252868397163,0.29283077130100577,0.14734852484319805,0.26964675237736324,0.05305902736896554,0.03866128454733177,0.048857349291460996,0.4487522399314681,0.1588751750179007,10.121785530742898,0.06610767625576999,0.05784161975159017,0.0971497588195897,-0.5121475357541763,-0.3405035490132592,9.177221022589917,-0.098942552139894,-0.051142256115795204,-0.06978023718913383,43.66160256090544,0
0.13437967758322739,0.011825738542602611,9.722647554232026,0.01802557208589834,0.005654963165301382,0.025585236440326137,0.17115537449439197,0.24661220016120808,0.2594370535302409,0.07862473425898893,0.04918204240959353,0.030268087660465907,0.38785772228034227,0.5359046179681956,10.139663346579548,0.17730231218820292,0.06654102755219364,0.05770124703492851,-0.21016555397966694,-0.30054349553134,9.363337406163252,-0.11330945914926965,-0.08535964315835766,-0.03205618613275306,50.59618468985492,0
0.009254211350318734,-0.049342633779311876,9.831086460138696,0.023480080893384745,0.011957655675694501,-0.015293103845599454,0.1725037045527124,0.2053936751284392,0.1591814659332403,0.0496678603704146,0.05110542558632486,0.04069264179301381,0.35507357651616606,0.3242931246065493,10.05434515300913,0.10432524289011554,0.10910759023003742,0.03676102332070437,-0.2975740329796472,-0.37827574248964896,9.566746070519162,-0.05949269792086939,-0.05880766319127711,-0.0793758243374928,49.53994938007319,0
0.025806727091182213,0.016978243900955946,9.928999421764367,-0.005238855767225654,-0.01635601693626628,0.007410826674639684,0.16890219829990755,0.2284634587321534,0.20159394631792457,0.035401712180222644,0.049344297949842096,0.0492688349255394,0.28301287039201306,0.29379742970975936,10.255949963990561,0.045984783079535636,0.08263566055769078,0.11366717130347954,-0.2446840067527951,-0.4413390592566422,9.586527825417969,-0.0668691562822494,-0.08822848366683667,-0.08213592143559102,46.21589687179295,0
-0.04626366726894181,-0.03704564472610378,9.612121795345647,0.009360394552693014,0.017112825272325445,0.003966520985498276,0.25826282032934794,0.21147089971585578,0.3255749518426686,0.040293256793570834,0.058037462900052336,0.06328767501062611,0.5047520459354211,0.296066511363089,9.942279207767632,0.053489851312822335,0.08903060588912026,0.0763919654052744,-0.4168074531670781,-0.2920742949367039,8.878186690993623,-0.06958274141538418,-0.11487690663083841,-0.14080875125258885,38.43657704067566,0
0.0757954310626485,-0.10578879333953398,9.728309756560455,-0.034723010182311415,0.024886105389687368,0.006442951808049593,0.1663015080593744,0.20404673242848653,0.21450348104140554,0.06224618121120976,0.03445396923704879,0.0573378785913887,0.3576662138687835,0.3247676469472292,10.026159349442626,0.09245842972941211,0.08121816616463137,0.12425384727258858,-0.18452261564827743,-0.3625998459387333,9.34477809432768,-0.11063754853565283,-0.02083627998517644,-0.09065249768404106,44.138372747701986,0
0.07033733263386319,-0.03272576372753805,9.734635359683603,-0.002457612287006228,-0.023528232702166064,-0.016088551100730507,0.16047291581937737,0.1820563694048548,0.29624262436507404,0.03789522119680065,0.04024636474906038,0.05385436463538638,0.32247343190661326,0.2120581061605833,10.321362899014586,0.06815842762688427,0.037074197949584546,0.0841451546420067,-0.16689717992349665,-0.3971028087083831,9.163114959508349,-0.06644063978961925,-0.09635127241087223,-0.07752329886368421,46.78619140770712,0
0.06975111332787515,-0.010815180219767257,9.721602625692492,-0.006293204737057056,-0.023353431394048687,0.009761312113854148,0.1713139736659481,0.19062479484248337,0.22258070227469087,0.05329853453536995,0.05454058527715002,0.04657970316364852,0.4413328058082797,0.32405275074440487,9.962368121248838,0.09401078734072432,0.0921792306232927,0.12278417105363496,-0.2497412417669724,-0.3182232191854297,9.216791444823862,-0.08300968815892525,-0.1028025373982407,-0.04034525349108958,43.972089207144506,0
0.029148464738019582,-0.03354747888621533,9.871037915360537,0.0028146810165992596,0.0061694626995852445,0.03180108477792074,0.18231398411272298,0.22692575654191804,0.2819810519315026,0.0567306633346907,0.044406213547955306,0.055181421999976714,0.21006799440635615,0.2429996422948571,10.31331508369275,0.08538145597869962,0.08016381058444878,0.15771361741191614,-0.42144269381837535,-0.4793985338437118,9.41615642115792,-0.08369861506100498,-0.0761955937512816,-0.03254938255378569,46.84118059314007,0
-0.05853298755182729,-0.056246476338389716,9.797669985555771,-0.010985145286623794,0.010892084667107107,0.017063733633988366,0.20258221917587327,0.24500163234443254,0.22915081398416368,0.048126490460699375,0.04226231094894586,0.04263669648148606,0.24090232450757473,0.2769689285584502,10.05029389693123,0.06729669850450247,0.06110900635448701,0.08414494495144324,-0.47203281971950484,-0.4185122588121528,9.316147078194243,-0.10490379549152731,-0.08154203387637442,-0.044214715801216525,43.57911295743382,0
0.0192242323171637,0.002402022660683122,9.829540677312124,0.022477093633725485,-0.0014383071767885447,-0.0087193378270877,0.11447550264207139,0.20938978926182022,0.16690861701614576,0.06067339304075059,0.03973421822573037,0.048592980631726755,0.2549259106006268,0.3416899573214997,10.089727516646455,0.12031906761105551,0.06225260587935971,0.07004237840141778,-0.12002813955675598,-0.3169679126439082,9.539690453294044,-0.09290792853078883,-0.06940104267659829,-0.07863231210919985,48.357525001434965,0
0.05887728504937832,0.07096596759661002,9.74806603102551,-0.019019127582704094,-0.00947442139031869,-0.016988604368121808,0.19060891237535035,0.202824915454987,0.34336867892112954,0.06596551758454021,0.0649514838321154,0.04851595091004233,0.4568301092600258,0.4221730197215523,10.428129770442025,0.09404625596660421,0.0880115178918629,0.05328635970584655,-0.19075023949198197,-0.34242021528162436,9.301077043913129,-0.13196548661162474,-0.12750797047395288,-0.10472294408402504,42.30905733672891,0
0.027949003561789455,0.06369215075534795,9.717114049682998,0.001351970582467848,0.026019573461855745,0.016847398848147753,0.22690354623355552,0.1375561883235641,0.22018789901863398,0.043852426686876576,0.06279482349372782,0.034073112350723446,0.3966499196473351,0.38011379296575276,9.982356752637338,0.07566636108364971,0.14758339256447744,0.05175178031855102,-0.3106378468838328,-0.1616253060758586,9.239026412982119,-0.08174552960335062,-0.05344529502134482,-0.05212904300246414,44.21556679310823,0
-0.06707034063827322,0.08015382953265804,9.833980856093348,0.0004675407116751986,0.01021596607037807,0.0200721022504459,0.15270490067681158,0.1802742231316601,0.3079374415924985,0.04733847585150333,0.05491344730573708,0.052240494083813545,0.15630463664085664,0.3352548150174926,10.43311281048185,0.050135113129681545,0.10759060387830477,0.10045531770300634,-0.34837781027613857,-0.2781215672729829,9.176374148449195,-0.10966695418090278,-0.10996628996518341,-0.06789269823088624,45.94128477406548,0
0.03964301429894309,0.09687510559927656,9.797117378664279,0.02939787536000471,-0.003152581094861702,0.01668410928699117,0.2079160872537501,0.15558102346121844,0.21812162594804657,0.03813785122904467,0.033705106432711886,0.052051177798424254,0.31523966988396435,0.33636060898279746,10.1785880429379,0.08141205160468194,0.06782295063648133,0.10012778103821843,-0.33800988821704303,-0.21574724056124472,9.472454055832925,-0.041696529036152855,-0.04102841025829404,-0.0878879219784298,48.0675008898505,0
-0.03456687978345622,-0.04390940349368837,9.847111595129553,0.03787190360384794,0.039656611269370104,-0.037590290566428805,0.16168071621955377,0.1548194639751706,0.38862997890777407,0.06050049796173146,0.01523985835173482,0.057625358979053215,0.2316254564200052,0.30277126921199976,10.483449973606932,0.11281919641318049,0.06813735063030721,0.04828978779973781,-0.24487542621625333,-0.22368311281786102,9.209726256785588,-0.08828518108735839,0.009962570322361392,-0.15402133225551815,40.84142948843454,0
0.053063771053714494,-0.03751652291084916,9.736194812219857,0.020307643747403636,0.029210188995700808,0.02301384995544566,0.2492155506672289,0.22561296153952126,0.2906629593196829,0.041768600067574255,0.03622680536512964,0.03979430348425305,0.5563123181024602,0.3220434470402927,10.237720732603883,0.07467711446311935,0.10004116490779116,0.10013181399512079,-0.23079232122913673,-0.5458711327701025,9.267366493440221,-0.07044195719548461,-0.007872675269919761,-0.03725408321373893,49.169107863242665,0
0.008984932667235388,-0.09125017576987235,9.904145833970798,-0.018969655943995054,0.02151704178356013,-0.014640881603247616,0.163805070992966,0.11384732138794736,0.23618807070640804,0.033359712979444164,0.028915848513978208,0.042467854308580424,0.2747358715351987,0.08842810251108436,10.339980960279807,0.03321637467996701,0.05988903601193523,0.04769037663151079,-0.2260537731251104,-0.33240580736449266,9.43782951620401,-0.0885094472267759,-0.04229609791487229,-0.08320160223521123,43.80692690133622,0
-0.1272515433880917,-0.04751690217897179,9.740440836534228,-0.015692669772588725,-0.0046241779219527365,-0.01872659998585517,0.2234352028647165,0.20122833492704248,0.16369465097543714,0.035346478628875036,0.024655687509516133,0.05708070743388472,0.15991325104269832,0.27019658527231766,10.08221208004509,0.06249821718097708,0.02957099376464897,0.06439097443782812,-0.5540946437865565,-0.44814353741078544,9.56119568356053,-0.058638968916898696,-0.042802621312240864,-0.138024091770746,47.918230463352145,0
-0.06679481083037798,-0.0015554597093863213,9.751409641471325,0.011129798723625546,0.0009167235325276791,0.013503241561930515,0.18104506025238348,0.16177500063853106,0.24749549240265917,0.04351905750867823,0.03759451989950716,0.04959117044863618,0.15686379475968767,0.17443691551116744,10.217070464089167,0.09891417303948469,0.05201488836625985,0.09991871345957516,-0.3557964731871921,-0.42020428552524447,9.39469599760948,-0.06814031357788956,-0.05329628516463693,-0.05759934631347094,49.163489256853794,0
0.1375827657180333,-0.025777372732608828,10.081379494341544,-0.006054001490013031,-0.0011775070967278123,-0.009650947002535399,0.1311343114274259,0.16879153531043511,0.14900217585077669,0.032065146661666176,0.042333999835683235,0.06737449903561746,0.3879010541256733,0.18591603239111,10.408566241999543,0.056060455760835674,0.07213652756139276,0.09690833595564187,-0.06201246383380428,-0.28756269789611605,9.887504650942786,-0.05928639041561077,-0.05635937746791406,-0.13655270807933187,43.030416775301134,0
0.039506763949550217,-0.003425485609031058,9.689508281977297,-0.02173242058068137,0.0029728662232503225,0.008612011870314433,0.21075797732908727,0.17131839053837314,0.16370245059672459,0.048086279234273735,0.044935951764717375,0.050495035064636644,0.3880214975726444,0.383433823790878,9.875869975100082,0.0424297676728647,0.08772065161823725,0.057974613030962366,-0.3454565253440897,-0.22459188245655948,9.339234110685997,-0.09510186974829893,-0.07680606080250318,-0.09542150097892843,40.68057735240386,0
-0.020348608684257623,0.002120487345912689,9.854843643968996,-0.010358357988328546,-0.02667631269706892,0.018101295215550824,0.18225634892065917,0.1481543213736826,0.4053954799369312,0.031280265442831245,0.054818517176868836,0.05788278223391276,0.4453857683283613,0.2069007219002372,10.622280996634814,0.046856318957071305,0.06774768411977576,0.13620379702391625,-0.2329437443486965,-0.18695776767617966,9.258794837004228,-0.064716278404648,-0.11416530174846228,-0.05387711316015065,45.001496603529304,0
0.043123435727474284,0.04354570895974888,9.76346661904643,0.01216957806422686,-0.00029704493046205213,0.011356259971328438,0.20340318600945326,0.240911837582748,0.29060124050497604,0.06209519548608076,0.045002461519314606,0.04407136418011906,0.26492493536659284,0.38969090355061,10.141684793333235,0.09473576867927837,0.08338215759021439,0.07744054389810764,-0.3518733344804884,-0.3048592886820022,9.274127207332572,-0.10231508231513818,-0.06875258927581655,-0.07660127379754947,46.627983137145236,0
0.014287059933599999,0.009367974409912692,9.777200929717134,-0.01180845691416735,-0.0047115718420940355,0.016110147101721123,0.11198745383846859,0.1588686588213975,0.32593425496791184,0.04759840681838791,0.06296231980777202,0.04554390644498923,0.19383868786595101,0.3027957193321715,10.224809808970067,0.042719280340049945,0.08177526940587074,0.08579995818740359,-0.1964739216222321,-0.2038383671928764,9.162600984601752,-0.09623143363505986,-0.10415859992052563,-0.04721505597116563,44.44874135543531,0
-0.06135925382144051,0.08377537317267089,9.733617171568609,0.007202566386745382,-0.011260119061446059,0.00546705534492232,0.2080870435243061,0.24095224097619417,0.25748517726982306,0.03587008619483316,0.044224963825955935,0.062458873986899754,0.2351827136329203,0.5050695355654459,10.08665804620799,0.054228527486286475,0.08220845964958118,0.09548601147992081,-0.40176142520020747,-0.3831126091475367,9.324382205982886,-0.05922265209151333,-0.09744878578797828,-0.09351610401353477,43.975592214445214,0
-0.22722014612660693,0.11866994538946303,9.740941127056876,-0.00802934556875357,-0.014846606176712709,-0.007434189553708512,0.16761169084468905,0.14897982635466325,0.36490521993107644,0.04058156575194543,0.03421007046393163,0.0440805005640613,0.14514944705107655,0.37781391996079383,10.2785387784924,0.04810570443710288,0.046046593082624335,0.05927688549357976,-0.40358827212618653,-0.07055583855107118,9.19365272308363,-0.0866117033842434,-0.07555478541589199,-0.10112033376762686,42.22021954855891,0
0.024345870158021903,0.023309461140917427,9.845998458946637,0.001062991508939665,-0.0008194940179473527,-0.006033679686561461,0.19766087753098446,0.1718827331833224,0.4012163147243331,0.047166256759655786,0.044539634035212224,0.02982405652024008,0.5241641760468937,0.18411671172904243,10.397522290323892,0.10886218692206354,0.07489650871526868,0.04478331440578328,-0.2612566374708266,-0.34333865067323394,9.339539588564769,-0.05218021673787873,-0.08158883790755045,-0.04234929008496023,47.43247232069577,0
-0.08699006696885185,0.06816948351920829,9.871339855420775,0.020886035475898693,-0.022798285039378814,-0.021259461978700305,0.25309803318906243,0.2592775377946487,0.21806079808546044,0.057500941241253586,0.041390417094623176,0.03799582580700114,0.39678891677439937,0.5082102769538718,10.187353848362331,0.12650151604863505,0.040117425959175855,0.018948084611911855,-0.41646454275830447,-0.302215928916632,9.478423478287116,-0.07586787606512255,-0.11403018665924035,-0.12218486145543517,46.96318385231032,0
0.10390612608149816,0.0310291151941821,9.748235955614332,-0.027502701058782518,-0.020426198903478045,-0.01689536788107605,0.18934411788295052,0.2218750587290056,0.32669645319352936,0.04279668958596946,0.04471032963956566,0.026213299527125013,0.3967972009053373,0.3938655765515657,10.334209625700629,0.057352944024247426,0.03253629119120449,0.029048593746259472,-0.20669253900670942,-0.22199826210203347,9.323038081172687,-0.08105712930030701,-0.12019725001603306,-0.04798733453573138,44.915484850139,0
0.06182572395491692,0.040227827966994326,9.67331433416519,-0.0036459819173653976,0.026802791321841553,-0.012235139727443148,0.16617498383113724,0.26377056817030003,0.21187473832170395,0.04604994466355257,0.040241073352751046,0.05602659528890922,0.3664440622974227,0.5593289005640579,10.198352049251534,0.08067103972548584,0.10941658704366981,0.05507639747868348,-0.1923912395275501,-0.414672920469935,9.431962618664654,-0.06509712976755667,-0.04135368745175956,-0.12913929153914147,36.99284564651521,0
0.04481845957750388,-0.15231370093527954,9.80914630772113,-0.018074009496061354,-0.006601817874612022,7.800463542297076e-07,0.18631754876633508,0.11382253163123908,0.2822080906676039,0.03053456021818058,0.03721501616628123,0.055078232361014466,0.43069316660471213,0.033636084643157586,10.203459061138062,0.05900238870529273,0.057583734698009384,0.08040804461460155,-0.1426883366747931,-0.39049685850214333,9.298753432717158,-0.05015214955891637,-0.0707510020623936,-0.11114670862611592,42.020973288515066,0
0.033422714181502174,0.044922197521501436,9.873206489510707,0.019407613828944667,0.008507757812135194,-0.003674915910987128,0.23282073298625977,0.14026291049612913,0.3139068679156412,0.05681089139038531,0.04676664227668975,0.05096694678521175,0.4266960540957547,0.20900692215595568,10.367954852486648,0.09798419192254698,0.0838832556637978,0.06451312180596887,-0.24801659742300852,-0.1815000043997256,9.347925849774501,-0.09255696319323017,-0.05104768841509463,-0.11999883197581783,42.75663317399069,0
0.02065530535830292,0.04480261564985771,9.910305692709862,-0.0008956456892530856,0.014862125603005117,-0.028860424469144608,0.19570269637903615,0.2596698338195504,0.13516526600339868,0.04736469315628164,0.04775699645785968,0.06120584827272726,0.36720812664482827,0.4449082755210326,10.12324751998419,0.06893721318361401,0.10006983338279801,0.0559727042502904,-0.37643574343570263,-0.353206564653982,9.713119568309168,-0.0482286380750297,-0.06413159696041636,-0.14607056229009616,42.182642409456626,0
-0.06443564544775697,0.049008207425179764,9.784047422113902,0.018099602732185433,-0.015698413771765455,-0.01675431524479256,0.2167045740288395,0.2692663247346002,0.19486550723791604,0.0520609799430644,0.03921606902815866,0.051676779857923946,0.3761991156359638,0.5812608475793127,10.059268683937894,0.12437956988990767,0.07557479827236359,0.06173778488316961,-0.4005469501993072,-0.32561493211920395,9.406010076168958,-0.05492331589284432,-0.06927844075038041,-0.0854657881776255,48.23771722110497,0
-0.054918634807897534,-0.050396774857854446,9.703598598343763,-0.005890926992974423,0.007485360290633762,-0.016895530888721734,0.1900943282238755,0.11667132210813275,0.2978806959507794,0.031642332245498485,0.036428003669139154,0.048742468319843545,0.30066837024303483,0.2354930059141912,10.27141070009324,0.045351262996089645,0.048195257711757804,0.10041275539607096,-0.280695794014136,-0.2164556769907775,9.174227425692772,-0.08082898652466827,-0.06025370980549986,-0.08858632489685365,48.33815410485257,0
0.03826468103785625,0.018156420369331273,9.792511564164782,-0.014290506797124555,0.02586261602384679,0.019855541423941896,0.23132667689812486,0.2102995280259543,0.29538938248715535,0.047091598944993894,0.045641750173958676,0.038016090848578876,0.3773758350387732,0.2524951424160342,10.28872453653835,0.07228137903294715,0.10216695417078386,0.0828324781109665,-0.469197758083304,-0.42390620688524294,9.156983470043997,-0.08014043928519822,-0.045428945211882205,-0.048729333485466854,45.78362677946096,0
-0.03142021339966969,0.06485723416684833,9.827007147940567,0.025854461468305855,-0.023802170107722224,0.012544063839426575,0.22414419861673116,0.1875283589540038,0.26755331566852053,0.04344523834524058,0.06088873063693279,0.04729923920345402,0.2266318521840266,0.35703154986371266,10.358053122651649,0.10515132546411449,0.10725632328120266,0.07404832387794537,-0.4055345857120295,-0.31681947763784213,9.488871977217174,-0.021450767908818016,-0.10442363625053784,-0.07783193752073458,52.33857471795394,0
0.03529326387821589,-0.0191100971993982,9.785565688277439,0.004075537188861234,-0.019047789418843792,-0.0037756837838222646,0.15950923239266498,0.17195367387945149,0.1652258447901109,0.06472993545944099,0.06642939604669272,0.046673619449483554,0.39822253252469747,0.3476005857472284,10.214426397262367,0.14798909511453134,0.09587682409912364,0.06899652290853198,-0.19727424866617174,-0.2860550476271848,9.586855438980805,-0.09860702056921351,-0.11159352592959425,-0.07148755697592034,44.296553047101625,0
0.06809219286455952,-0.01697893532977162,9.714871989393876,-0.012108926987063923,0.03521844312094079,-0.020117565333980788,0.3081261733876502,0.19644658389672714,0.4002419105817515,0.025119793738757102,0.045328993845265036,0.03731617719500554,0.6768499809921735,0.3265226280072618,10.454716403023824,0.033755342498355205,0.1152670491982067,0.035837346394801455,-0.4331259680882038,-0.36872737640958797,9.07787639601533,-0.0542752616217542,-0.04063233314019381,-0.08458447023390302,49.55139033960124,0
-0.05210389915119442,-0.007620494576143169,9.955830369261701,0.005778452358726817,-0.0033230078447621285,0.013208628976830611,0.19021366095390196,0.16620650072253396,0.3079362965364535,0.04492679422278858,0.031956543214940035,0.04751551781437581,0.23540549915296413,0.34073330676490704,10.573367820926634,0.1139547858814467,0.057883054830779726,0.10344749511739251,-0.3959360367765722,-0.20779659530434724,9.449170109842997,-0.06456600631786284,-0.05649315509139982,-0.05528500383076166,47.75109232330104,0
0.10678088033030704,-0.08370368801668716,9.796667144830026,-0.03266544892818466,0.005732683862074027,0.005827399597088461,0.1616575792560286,0.21390170241818798,0.28144202114466516,0.03057432470526863,0.05488742266058855,0.06956438933666859,0.3013132034342988,0.45549127973876324,10.475909527460761,0.02047040845552608,0.06807606377732343,0.0925026613582955,-0.19348346764966529,-0.3391333380588694,9.448965082724191,-0.08911286592018809,-0.1223686285948628,-0.14389703093542675,47.4731925394351,0
-0.11863942057038535,0.13595045471217967,9.86908399042368,0.017759957592874034,-0.012471292457223972,0.0022262182261457153,0.19020084943582194,0.12426395644099336,0.1881952663065605,0.0438288818618645,0.04646983448785129,0.0578777073105969,0.3143939507993768,0.329560388707843,10.057174106090322,0.07873799438294045,0.0573758925926169,0.06182379577569069,-0.41495012897678374,-0.06630520971339923,9.48666754063652,-0.06506639025578263,-0.09867926867922183,-0.0999581425697624,48.68202488429243,0
0.027757371071173136,-0.08184936206540352,9.894378008309388,-0.0014108496027937921,0.04294625195202293,0.015158473944599887,0.15893041457132595,0.09879791017334484,0.3707044141376163,0.042511128883199925,0.05462243238283201,0.035763590459210876,0.26690526567734446,0.06431998918691802,10.50588312474422,0.05497264375538783,0.15671134328983102,0.0768505647820279,-0.28312196083930885,-0.2989683802400333,9.279268775316108,-0.06235092776333254,-0.016642509295491454,-0.035716578376215,38.70025973915802,0
-0.006226287764145877,0.053443290951505296,9.789858925463792,-0.00029747240802336164,-0.0025085350140302484,0.010502910299285587,0.17452991866157536,0.18439526906963524,0.21010585849853916,0.03962467386886363,0.037349929689896755,0.03454430930963488,0.30005924140824236,0.27338389957583537,10.058082001416876,0.0542550499858484,0.06719924977637412,0.09010304204160294,-0.21915067051144127,-0.2871117845878775,9.408826928779298,-0.0711034530904813,-0.04393565902916341,-0.030778956269732562,41.09655700227357,0
-0.015942368521711086,0.05116853254279635,9.611336909751724,0.019225300861230872,0.010517364599199015,0.008777025344886717,0.210917351234185,0.16344533257292362,0.2904380497623345,0.059688815974612106,0.04787486880867908,0.03483153097770293,0.2889855963809191,0.41381293216708875,10.06646078608701,0.11093210329751556,0.09920474646840953,0.06287287800632683,-0.5260779460710843,-0.1782235244842032,9.152122761383145,-0.09544898980538832,-0.05207061897636772,-0.07708071432756707,39.808705571566165,0
-0.13229207004936988,0.00969434348393105,9.911778085146446,0.03106230569763831,-0.020218177255901505,-1.923827526629368e-06,0.14165933635498293,0.12742113108034533,0.25976656193731285,0.027444931781325368,0.02765120561910281,0.03702483621134876,0.05022856005987654,0.12960035025601965,10.427167743232157,0.07680436259705573,0.021297783975973084,0.07608084444008492,-0.3688070646993218,-0.35380114166500953,9.573648503715635,-0.007959660479484518,-0.07845670608011864,-0.05840398908578242,45.678788830236286,0
0.04125725945682123,-0.2493730912065915,9.698817160545945,0.028537266525668868,0.027628646019548113,-0.01789531630699285,0.2583822304643893,0.1988440509384305,0.2960240751455841,0.03818144574349805,0.05396685160558124,0.03924733249040556,0.4852632212308856,0.030922410713464205,10.263115770538011,0.08160342131886629,0.11672475605052789,0.054462346624544716,-0.32880441913289316,-0.6032528491879353,9.178338018517053,-0.03566892932499099,-0.09388328782022004,-0.07860267775350614,42.44893082754612,0
-0.01329653454816225,-0.06163052190730609,9.802184425295465,-0.019693292603019386,-0.010497160953085971,0.024964413906827472,0.14145513558369072,0.14973089475741946,0.27396728086724387,0.054718088130678605,0.04538762600960857,0.07284622345067275,0.28061900042657917,0.2499436155060084,10.145444020408071,0.06267566132866283,0.05020213332734794,0.12981993042557546,-0.18883303025576004,-0.300956731926801,9.322314407350863,-0.12164909670653462,-0.07895711526369137,-0.09766394699192787,45.36238662613847,0
-0.026658605329877773,-0.08636631435846928,9.800634231723299,0.005866305631970811,-0.005454785890772673,0.001574458947362193,0.21477487780169152,0.17912368508165621,0.2571285700521582,0.06545797642457643,0.048915101090186104,0.03351737412711672,0.3507238398303176,0.1440123386763865,10.33751597627157,0.14841163508335498,0.07664884268388011,0.06847235860835363,-0.30212270754492987,-0.3860041189573545,9.359414765657597,-0.06989331515766727,-0.1139981019795376,-0.047292584310087815,42.71661645151033,0
0.08790316222604817,-0.15489479607819243,10.032035764017127,-0.0015949059126356899,0.0117887183594842,-0.019060577897196652,0.24231046259042235,0.238058026792289,0.3161376320515222,0.05011232623462404,0.04289774920121544,0.057291337791110404,0.5867004111950188,0.3127179425982545,10.584187319467556,0.10231043028247276,0.06273221956183761,0.11578675796370892,-0.42853132434808167,-0.48322839094134545,9.474553967992142,-0.09213946905882979,-0.08055888039955983,-0.10549935680415208,47.36046907450341,0
-0.08610754853172638,-0.02257690287416311,9.738054912355814,-0.00821615371445469,0.03963839599353996,0.020043922922565884,0.11555201287635121,0.16457761513082542,0.2869992021505421,0.055702700900922254,0.06019629807843464,0.04116044953048063,0.07502837539090204,0.24360460400242445,10.435322963377649,0.12521122874458124,0.14289936005519954,0.08524079582348733,-0.2847556305054741,-0.24111122728049642,9.285499085187029,-0.07355658517223782,-0.05111075033600193,-0.03892848225165378,47.29143042090662,0
0.015356881171548976,-0.003261869689624142,9.802276965524376,0.006150993270096229,-0.006736949529818669,-0.024783659648983068,0.11583559895583863,0.17270484434248318,0.2611471805536783,0.03366809361563465,0.05021817598059599,0.029657109326416742,0.18896399222068505,0.24816464768119562,10.151207617811053,0.049719209517070415,0.05643878155552334,0.02195925392136282,-0.19521016350609044,-0.28565126201221824,9.307954117743089,-0.06236803851016559,-0.11610760970777126,-0.07112240334413941,45.563019794228396,0
0.016452281950952795,0.15421801424738396,9.789295718747306,-0.009540140313180272,0.01963154731452256,-0.006835343294380375,0.19131273476663366,0.24111368347840725,0.2337386319065117,0.06787375704338391,0.03277212148877268,0.03610022588890327,0.28478319215030484,0.38419477319115597,10.105185525277031,0.09423364908582385,0.0643562233925878,0.04141466455124797,-0.40783644532496033,-0.31303041629302175,9.461783158844373,-0.1333232165691751,-0.025195303160964723,-0.08872378694053613,44.20579834109445,0
0.014981442220154101,0.013110228597455618,9.825802019328766,-0.0035862413496492744,-0.035610185608612885,0.004355101297693914,0.11671068430653317,0.19493246996115648,0.22388066958026556,0.04084359242162951,0.04161243862449207,0.06762026174681425,0.23732344358922255,0.2932841645652117,10.149272044683675,0.058699493943642295,0.03515759975704715,0.11909179607480187,-0.21100437252482412,-0.3813095351945735,9.415158098256505,-0.058540357509624934,-0.0875461095633221,-0.10395244562929332,42.00910999421122,0
0.02036734511380211,0.0758174429287427,9.89556418632643,-0.013871712685317592,-0.015948374094584737,-0.03025008291767147,0.16857165020500234,0.19843565242655176,0.2903489977319336,0.04200436857578192,0.05134370151191356,0.04269999710572924,0.23595578960364608,0.42644746914291143,10.440252311517675,0.05209971410189334,0.10021672592898188,0.05727186930089609,-0.2714126098481425,-0.220809150365177,9.474092105383946,-0.09803535601181891,-0.0990204634756642,-0.10579720843635501,46.42834802607317,0
-0.036012115387762555,-0.06137624937132076,9.70518135898483,-0.0060561930184541285,-0.006370745682062991,-0.007397077292368373,0.19159387966319774,0.20146215058296255,0.28528506603114795,0.038954216486694684,0.033505540837734986,0.052269160055239676,0.2545853102087397,0.2710918080061956,10.105181118385948,0.08679987925927485,0.049473187425597406,0.09975314846279164,-0.2583632049028024,-0.38681380091852,9.313598713610494,-0.06499990815290334,-0.053551117038068,-0.07809721101137754,45.673870440934465,0
-0.06203819236596285,0.18334242793143013,9.739012932873823,-0.005124197950901158,0.02009943508068887,0.005237001190613039,0.20246048191637311,0.16752498732799714,0.2099477348286046,0.0544766683347426,0.07925613456074888,0.042306678717240476,0.2681890124281462,0.4570474807670185,10.107962329330826,0.08143345246206689,0.12888032866196272,0.06899094253536671,-0.3712568691325563,-0.0969940013029795,9.424355235456101,-0.09376555545602691,-0.08627490109547704,-0.04810811867540637,44.904054457082296,0
0.030716714835788257,0.0425353611147158,9.909175539486457,0.01710287162734253,0.011616215463272411,0.006204161619504729,0.20003048016283892,0.18402495583900869,0.31136394047611865,0.057797111210714194,0.0457769737519023,0.04494604907780582,0.5054392678509024,0.36096743301330303,10.657302972304286,0.12977090120312257,0.08393807400554454,0.07426079989059046,-0.23347226578905605,-0.3007189000354055,9.589136600592383,-0.09282001419572397,-0.047563017914730596,-0.07048328937667309,49.7036400599148,0
0.04866014454270138,-0.05122758634657174,9.557669241823945,-0.00492415017192957,0.00853023179498497,0.0201061160135676,0.19631258411156385,0.13156381134352077,0.19127463305323125,0.03010388380580839,0.04345277834868624,0.04076213760366217,0.3404445411650384,0.3025285527608025,9.948149467243388,0.056926421681359175,0.08886492925012696,0.10085203369868355,-0.22628308546478437,-0.191348551410353,9.284018887227944,-0.049264577435178813,-0.046813300697930715,-0.04814848646903242,45.375278734577975,0
-0.05961775668852002,-0.1415243823384575,9.907187676488489,0.014159112850155342,0.022436506340556807,-0.0034159860939945046,0.19591797984299916,0.24442008062870318,0.2809042731557873,0.05595392964733091,0.03291442613868609,0.03694566629391728,0.1817747761457438,0.34323433192890024,10.470051977609526,0.13330682781394185,0.0806830595628472,0.0591808686064123,-0.5349341561975911,-0.502073523616723,9.503120181708004,-0.08065035160224349,-0.032964747466083195,-0.03906930983117967,42.49604555902313,0
0.07214410624227832,-0.0521928667010742,9.688334450696448,-0.013481278860377902,0.01038469085338262,0.038220296315237504,0.18819543129637112,0.23316532078625593,0.2531709440238265,0.033332759658569036,0.04487041244319385,0.03307240130202112,0.3757357952626712,0.40564710681523464,9.96952852618001,0.025472921060267623,0.08673667026413821,0.1082529027233683,-0.2551876872959087,-0.40737004365789203,9.22325089154482,-0.07162023582552153,-0.05915619384029132,-0.012291163957401577,43.2989425155865,0
0.10091008885288222,-0.08314173141246677,9.889689917753882,0.02370581824667555,0.03982873937842395,-0.0058855193668113925,0.20533172546798978,0.12461213138546265,0.16273158831692064,0.03494169836894971,0.06953091900550061,0.0483830968422811,0.38467069819695654,0.14637345458275042,10.161453671759249,0.08515940874729645,0.10649602482681564,0.09159724431888419,-0.33780853597919736,-0.3191112107277182,9.712301277150553,-0.024336342053442737,-0.09535452411604305,-0.1122531461445203,44.987831908683376,0
-0.021393435098998943,0.016747392311260944,9.644833293923117,0.015264729237451601,-0.0045820384180181835,-0.008347361425530239,0.1640720185285346,0.24456093034234191,0.30147872442550305,0.049284797435516246,0.04175198044631766,0.03855394642267409,0.21614244675833533,0.44017884002248125,10.081616419239653,0.07332078815495736,0.07355262169695999,0.043663341277361996,-0.2510399900640009,-0.5296349573171385,9.014308799643265,-0.09742247467038531,-0.09589621384835952,-0.06948142140037619,43.02711444244632,0
0.026458464688755144,-0.017543888242443212,9.747006467495615,0.020338491733993318,-0.021919575575044127,-0.013178182765621837,0.17412935774612118,0.22435905238449325,0.21159110703579614,0.06502266423943052,0.040732508707769205,0.055059332642052955,0.31530780620084436,0.2805390629042416,10.122978023198637,0.10639670173200573,0.03697962029061051,0.0970436724246811,-0.24622893895407444,-0.4279218416639169,9.406078097409921,-0.11257598961383197,-0.10524705346504104,-0.0879870666141827,44.460019405047824,0
-0.024241891196769522,0.047877495263402715,9.756487587440256,0.0015606316014316044,-0.008208645883633906,0.008405362178119203,0.12551446293987265,0.2191052658953182,0.3107714296599169,0.06276771846440161,0.05820186218809045,0.04795477208396474,0.14653029790369324,0.4555717084348329,10.438988504134382,0.10994535267005259,0.11037182531996226,0.09212395518256983,-0.243391745938199,-0.30635620233914024,9.325190550864694,-0.07137457387637462,-0.07406784091533332,-0.046548825140969266,45.96259988374819,0
-0.0874233387600187,0.10433181712023834,9.730855400231764,0.014322434402068271,0.019611010315788942,0.014962486823714722,0.15509438115297294,0.23038962676419047,0.17848356964542603,0.06938880499398359,0.026679733043710834,0.04567476740468562,0.20983094785197634,0.4247121791825455,9.971992661565125,0.111473980112839,0.059932002056107075,0.06812526991038655,-0.3118699111410417,-0.3042139664265342,9.435436765074957,-0.14360912119030464,-0.02501861091592175,-0.09341417321660063,42.816108274150444,0
-0.05277844836896193,-0.007924738892607749,9.801751640528266,-0.013154328787882382,0.005364206042899104,0.005570139283376902,0.1296717954925536,0.18596513083783325,0.22973253443044833,0.046819705702734894,0.045375871690590465,0.04656852135477384,0.1992072396004913,0.36514851936017984,10.19421283514378,0.06017515860786835,0.04454713815562383,0.0974000791943343,-0.23024693735490637,-0.3265127437938844,9.468269798910107,-0.09469220610696379,-0.11198236188153168,-0.07036902996575477,45.33507568721782,0
-0.047674501522099164,0.00859742974747193,9.914145827014856,-0.0030107906506077844,0.029260581531233378,0.008677704470972063,0.1887928875124317,0.17628307527451406,0.2523212138047587,0.03884231669691064,0.031182458317068843,0.0435112090603936,0.30101006068213604,0.39681676633439444,10.188812880511717,0.06694439972432147,0.09165015967389267,0.08886307895714461,-0.38373382293236485,-0.2199455723216759,9.27084039025273,-0.05776638304369083,-0.015754600104084776,-0.05623347469935228,46.7090858615701,0
0.06462577396374186,-0.06069363796220349,9.78729415442963,0.010713916825869677,-0.012414432904672772,0.010199582880617935,0.20522232892150497,0.1237270589194677,0.20449930987202233,0.03565866169527395,0.04218612714370141,0.06236831230432921,0.4215095150989268,0.13466594133166868,10.031823814238678,0.06999712122709695,0.05714479813170236,0.09335710281189138,-0.20714304652594007,-0.32161361340089223,9.345615402765201,-0.054417758190449965,-0.07603451620406185,-0.13517718500043704,46.34969327387352,0
0.00948521529260125,-0.08776238766991055,9.756856481695234,0.013569356542462307,0.0001798332781400999,-0.008015501506553804,0.20203720726509622,0.23201908329091042,0.22544255368877858,0.03596172152794459,0.041698655252170216,0.06487997968737334,0.3074588106398739,0.13932849747590842,10.151955135960371,0.10017944410096685,0.05742861596251545,0.0987662645882689,-0.4027671509486692,-0.5569936756123804,9.3757639920405,-0.03955597744231901,-0.09257015531818173,-0.09856319126222131,48.29831108492181,0
-0.018878533665773013,-0.022483968777879372,9.949104734011708,-0.006313575964040733,-0.002124610499410246,-0.0033309876632154184,0.1665630861811675,0.20676893943072075,0.21647201081488662,0.06322691029348036,0.04111137961334719,0.0481348332721404,0.2327913095583287,0.4233326789743093,10.34783109453384,0.11824340734924539,0.06953313400154974,0.0819407004414629,-0.26233728115179705,-0.41290854132926935,9.581536307105175,-0.08790683770521497,-0.06893309224180176,-0.11179878726429052,46.137377048322435,0
-0.018997827742350516,0.06101961201062991,9.792639504385104,-0.0015909175705903131,0.005290048384760017,-0.010878321519628469,0.18494949918190093,0.1579199381989384,0.38646915973896107,0.06822136056884795,0.06502984664965464,0.058329357600348665,0.41652880143612747,0.3382480726619041,10.33772455418949,0.0998397250058344,0.1498239886207137,0.054883824004576504,-0.2943635451532782,-0.11950497813714617,8.970921208194474,-0.11041851498524716,-0.08121054596942094,-0.15456819369690344,46.75794888813423,0
-0.05075867000226507,-0.02650374952028876,9.804906009638234,-0.04075755063017171,-0.001708426791778108,0.01129913489083897,0.14371598213704007,0.2550449643725651,0.30109689033818954,0.058168540996999765,0.06374167804672379,0.05330128308423534,0.175459225580685,0.4388792859496648,10.335528257462993,0.07058476853382219,0.13271048493068718,0.08715462283343471,-0.27292340234749973,-0.37912790263213525,9.25220526179807,-0.10296518613538089,-0.10418705060107264,-0.10530377556862705,44.751258791648624,0
-0.014075163280133394,0.1165073446973359,9.791755778809412,-0.007205348029748875,0.012317450967120053,0.00012654556832488573,0.11168355344025056,0.1377406696525723,0.22747981808494097,0.04406025737116833,0.036665063379079835,0.02706176537510047,0.1497164558542806,0.4022878690630524,10.081621773160304,0.07614690881228453,0.05160357562576662,0.05283294962499982,-0.2254745298630193,-0.08239019717454574,9.295736105838039,-0.08184048949394807,-0.05439903594264206,-0.05340386849943851,46.31236515686308,0
0.05079374396479954,-0.004776360325429154,9.767469257550559,-0.0064234794015243565,-0.012315030633452243,-0.00019795354057419932,0.1756983693657835,0.18082533250691585,0.23285350011335565,0.04447993441731541,0.06406006593724746,0.05037327914292151,0.2979336589334415,0.3756739822567928,10.08334399078438,0.05991880012807707,0.12166351588913056,0.1081701981603835,-0.2856610945096484,-0.3311228217001248,9.344466427483013,-0.07801207556858696,-0.10374704257413717,-0.08048501463271637,47.64939130086465,0
-0.05274350929822964,0.02330312125548798,9.900016410464112,0.0034267143488686384,0.01165238840730529,-0.00804254835496688,0.16110509308928947,0.1691423737527587,0.3707897153049828,0.05285830959292406,0.05712729135160608,0.03222078189679893,0.21671029931227107,0.28833939564101335,10.439980831596284,0.07982040930572998,0.09619807868591555,0.03431666107225535,-0.29240557064045714,-0.19379749175801128,9.262559026078534,-0.09322428872496719,-0.07937443716400172,-0.05651943258316919,46.96768900085744,0
-0.0033152022927475195,-0.03624896812600854,9.826817425711525,0.010646235525258058,0.0019479858518284792,-0.01465934872619563,0.18788611078509246,0.12604486099422882,0.2818456968142127,0.029046322965432074,0.028675540240072316,0.05056917783847575,0.3639812930281816,0.16091235686041283,10.244399101616038,0.04936613379165826,0.04418372722819289,0.05641283971808865,-0.20594307992038174,-0.3081814525448736,9.32643596558641,-0.05215723467547742,-0.05092523381972848,-0.07384345554198048,48.16502530233009,0
0.003239789805367541,-0.046136646500858185,9.882007697942782,-0.02663031808855315,0.022513398438008286,-0.001813681908996527,0.09078307087340813,0.1350579436187249,0.39387085010342854,0.0647872301906404,0.04661166580826081,0.04496373515008387,0.15097654867812327,0.22704955601194712,10.542281109750414,0.050358019702251525,0.09976119552498149,0.08280860426656066,-0.13185455506999044,-0.2853473382319387,9.312769153986714,-0.1569958770032066,-0.06256217595755606,-0.08942688740929979,48.50884446623478,0
-0.035215376232150604,0.05694252437717416,9.98365275858862,-0.02753630744153663,-0.0069833714433072845,-0.018401170938556134,0.20598787514254763,0.11198415071062456,0.18082287141226255,0.04136515987250655,0.027556967333088583,0.034366093069296076,0.22363243351720608,0.2113953864598039,10.298700165122094,0.051899226498174945,0.027723438648740058,0.038225287794158236,-0.536953953852197,-0.09859577107587228,9.654508830017802,-0.10281860566182893,-0.0505078598580604,-0.0823267813143624,44.75485710464025,0
0.035886655371267465,0.013168955369345906,9.735080249465685,0.007977284435831178,0.004987914207975589,-0.014159066269589824,0.163481580766119,0.14362640845916547,0.2297148607171668,0.06015690022132415,0.04956765324090323,0.04197620585321948,0.1895792832903392,0.21530253598786417,10.085578273258452,0.08199702600633188,0.08647052535798778,0.06257052412263968,-0.3268316136123821,-0.1986981891051587,9.402862966721571,-0.05684823699350851,-0.1178697910113073,-0.07111169921780168,39.146767485528976,0
-0.018573446284398217,-0.04950755383278188,9.802436978988291,0.00900556808157012,-0.0006771193456598035,0.015549197363812928,0.09970124312348914,0.16357580549346956,0.4280431664176682,0.042717571533188226,0.060319592190824264,0.04798012111584471,0.1784858036881998,0.2169339084445161,10.604917796493831,0.08711777066562004,0.08606030645073315,0.11153014357399336,-0.1727705808541678,-0.3722657316360233,9.07878094095068,-0.07009655303915581,-0.09552910362607586,-0.058679363601763915,42.546116409104016,0
0.04002520594826227,0.05472647049009107,9.671187164796635,0.02014407522602152,-0.004212307791478871,0.0038932680754856174,0.15984746249718437,0.18962279746573996,0.3307516304977018,0.0608875405718121,0.05541542439569274,0.06979232425188833,0.33405532408059846,0.31387046998802376,10.340307270527731,0.09865407004090569,0.10386980544316862,0.1224824159063001,-0.13871254877789158,-0.3151414209098167,9.076854852290317,-0.11883272714058529,-0.08119086456982991,-0.09393551905283858,46.89196227072701,0
-0.1493244660948659,-0.1050002165372087,9.77288866780804,0.008734796346572864,0.004636899944483626,-0.000876369369030007,0.1506766765231191,0.22139345880710554,0.28644733404984973,0.03242883573193658,0.038487560962862516,0.05490084014876775,0.1025711076781481,0.21327856178194043,10.175792689346498,0.06849960902525819,0.06335320901752965,0.082826926219414,-0.3373652693713617,-0.6301133441207555,9.171794113846468,-0.028782211648726304,-0.06715372519496862,-0.10405729469947822,46.449003892032344,0
0.04911644165023923,-0.053699280577188216,9.864703337503183,0.009146037546115149,0.004275539295480214,0.022039455381839722,0.1941918094298296,0.13383050508291278,0.38741662077895067,0.0479250993250188,0.04896063085468393,0.04817923822360787,0.41560598687172545,0.12147482779841359,10.35731625202637,0.06872944622274345,0.10577465250199386,0.10815102928000438,-0.389954753515275,-0.29845654410297157,9.190839359981057,-0.09478497292905469,-0.05032833083753577,-0.06152655372950976,47.04868590315536,0
-0.008643832674204072,-0.04862229774567828,9.759601769649175,-0.0001811324025874946,-0.0020762205129497835,-0.011043557599781836,0.15062765778616205,0.23026614851497165,0.233669251107199,0.03353453106768729,0.045161094392372425,0.04148331030040284,0.2903348646402941,0.423787177816049,10.002510870582102,0.06913546198311474,0.06492334450810476,0.05441627564280299,-0.21393598699224392,-0.40552055157304684,9.24984287458148,-0.05437321236925551,-0.09057667108125728,-0.07459152461100836,48.627927953089745,0
0.011593772599440222,-0.12061052699508032,9.869458781719237,-0.009213665329911913,-0.0034463181609646052,0.01333151942926401,0.1296609309991787,0.21247837067255995,0.23615452681427992,0.03891637429237441,0.05247544693381688,0.03725041488182615,0.21871282384352853,0.25935945957040335,10.373750665327764,0.03969373320184766,0.11226966492859286,0.07105956552123015,-0.18464833494416844,-0.4002765093350192,9.45415138241025,-0.0718971840342841,-0.09327422609991101,-0.0608427999127987,42.28511033511423,0
0.0015763503248259702,-0.026748567971416587,9.80086848950405,-0.004657798788990947,-0.00967316374487786,0.009654448317549694,0.24345899787754965,0.12767043154258814,0.2026634267503357,0.04396403712341862,0.043820324170507796,0.06164070794570179,0.5006647565283374,0.1891328881400438,10.171450012270663,0.06938919199646497,0.08698645012847533,0.08970219878416359,-0.3570430759249108,-0.24310482902839856,9.549707014826465,-0.08653652371737572,-0.07258306409460498,-0.12144831062497737,43.70891634002472,0
-0.0005160977143629675,-0.061716085967931655,9.911791217499571,-0.01529349660125035,-0.0007267143313828183,-0.0024878214974716774,0.20225455996879835,0.3011377722586797,0.19413552578095067,0.05062215894041427,0.04023883589548347,0.06438308968291162,0.332023835712298,0.4653370929122067,10.266206270071187,0.049323470473654964,0.05255012731329665,0.10482229715461387,-0.42218517404613476,-0.5578188976397143,9.675325679311,-0.12874601553967405,-0.058822386822020206,-0.10370718983699799,46.866350142233514,0
-0.02964123347088416,-0.016924713685372385,9.840831853616857,-0.030591986957412436,0.0044422542419685716,0.04250352606623285,0.12446777428232711,0.19440746991220337,0.3124227215260721,0.04611919087732965,0.04080144984734335,0.035229825931760855,0.1813810915454998,0.42710384307658744,10.375605724097445,0.05724189138102118,0.08750206633047716,0.1052376011082953,-0.18313300108600777,-0.21274692796573255,9.141575433438737,-0.13013533090945562,-0.05985500126046749,-0.02881782501015629,45.38796312045679,0
-0.022409490146995652,-0.017944668753587713,9.790338281784233,-0.01811956205534007,0.0021251702596132337,-0.0016659735786431623,0.2530755540441306,0.1561590672007742,0.31342664160188555,0.05745542746016929,0.07595050302991196,0.03375634171686198,0.32162870599662363,0.25154680714627153,10.231677914098288,0.0851196937493345,0.1199068543588491,0.08295537815854905,-0.5557607171053477,-0.2357046491343,9.30157515579369,-0.1081213254955586,-0.117142746833871,-0.0513688345409527,45.6023072248075,0
0.024180891670352374,-0.014922629191150113,9.796616159105914,0.008982206033780653,0.0019533284464081347,0.01721775168050156,0.10541569852522086,0.16917600877408354,0.21065238661374272,0.057344351627236445,0.04904492106854381,0.050324582450603714,0.18623759196513695,0.2415264134904684,10.197610686930087,0.12589022709739253,0.07393691286962656,0.078259824645081,-0.15282155271293774,-0.2652023291338194,9.587532007359732,-0.07750003721153453,-0.06926299374069964,-0.08110405761306978,44.177276547557106,0
0.028521454435518907,0.05836995424613291,9.705396690582868,-0.007533300555403966,-0.004115137801177707,0.004371966606514068,0.14353125960786334,0.17450114342048673,0.2629054774302818,0.025467158243685936,0.04661909874756523,0.03006541281692412,0.323826737901207,0.3413810994149701,10.013483823416244,0.024956924264142033,0.11599494664931082,0.0793885718910392,-0.1554814069807094,-0.22297694662794024,9.199068755483687,-0.048557115945537715,-0.05393800185095692,-0.035106035466725055,43.84623641469189,0
0.0804756306704664,0.009513380091258516,9.811604823150597,0.009401838361511114,0.013725390702110239,-0.006334585095656539,0.24463790925933818,0.18399910110612888,0.2984527368455056,0.06281298572698955,0.03620141400753349,0.06584179723763167,0.3927411459126229,0.3616080573672408,10.38102764657771,0.09515214447034899,0.07565646673074083,0.0840487862698219,-0.4566527606999817,-0.21782694530252225,9.39657559199384,-0.12290992674778847,-0.05889600812807089,-0.1444167657221126,48.223918319898345,0
-0.05943808159061694,-0.07102158534731874,9.779702718342591,-0.017931869305760295,-0.008074631758243139,0.027743644523785072,0.22543080140374036,0.18837890654346892,0.20565796532447453,0.05833966390631973,0.05388504732123021,0.04700473160015619,0.28501040187361276,0.2549010914077571,10.020721552108025,0.09123394113144795,0.12024299141982944,0.107310933984406,-0.48336899754697504,-0.40024131466173235,9.375667896645268,-0.11028061178688749,-0.07345547998575475,-0.04779529437025904,40.838090667398504,0
-0.004624467206167296,-0.022655175081946054,9.746600910323277,0.010945612567841705,0.00013819876051878802,0.013257203297649997,0.20916979822137616,0.20237056672068926,0.3257747437384922,0.042148689774037094,0.0395303808063439,0.04802348955135708,0.3243238459412081,0.3510769677951886,10.24663540693015,0.08062470940219091,0.05032728277338834,0.07605353108641873,-0.3972300569854523,-0.404897217841382,9.339811125378603,-0.07279074758945585,-0.07552106679722538,-0.09128741881505616,41.68009739252945,0
0.0023351252184338244,-0.023906885725813506,9.644065580263595,-0.010319655271493217,0.010096004639071428,-0.04419716184665534,0.16611634593187705,0.14687402810520314,0.29977124218218787,0.03718743223522989,0.04749146339526375,0.0432656384033483,0.28682321469614247,0.34027990908258593,10.262947797917807,0.05745853732121945,0.08722456951757829,0.020864516755974196,-0.29048571423585756,-0.26598109637056705,9.242422946069183,-0.06738924278561914,-0.06837567653514458,-0.12291307913522412,48.05680940438759,0
-0.01028616603572415,0.004223543272534233,9.885033372051282,-0.022980092846173483,-0.007746591307352707,-0.004161184227779275,0.1515523221058811,0.17830398341647685,0.28233241482795673,0.04420917010128255,0.05645690632045916,0.046530772776998006,0.21590374932356216,0.31676204494925825,10.401116084605453,0.06988766143998996,0.0757062082818239,0.06376359070034086,-0.2779610122870743,-0.325075485210408,9.430161101210325,-0.10753415401676475,-0.10145545414774429,-0.060384089959862636,42.59109920839797,0
0.03672047895685149,0.024377231821747794,9.656498440591582,-0.02241790773045679,0.014492831685454515,0.012982922105919587,0.17676833347083407,0.16222557773886553,0.361306843413543,0.035583039210718655,0.047257181240860466,0.0680438747713913,0.257788680405538,0.28848320788937376,10.359376227488307,0.05932942396918607,0.07536801726626995,0.12503957559598725,-0.27920802593713084,-0.21533142240543268,9.135931333138009,-0.06991902125054832,-0.09907340042320958,-0.08730152574993445,48.77133022317217,0
-0.08605817047468993,0.08167055270693556,9.746249650713324,-0.012185820390032737,-0.005510956844603268,0.025910174185835015,0.20530648630946383,0.2163544881503369,0.33571572883881395,0.05993767730512235,0.0562809707639438,0.044900526134132444,0.22435370347369227,0.4748766440431368,10.358029211245462,0.06962257845672477,0.06095069322684204,0.11238885333463851,-0.3771756122416996,-0.2703673220373347,9.091877734926653,-0.10173826049296315,-0.12296281925611954,-0.018261991176306475,46.41500798807578,0
-0.09128478228228802,-0.02821446007030489,9.825973558778863,-0.008012316147651665,0.01781678520704947,-0.03800332865982711,0.2413793025398172,0.16404128957925512,0.17661142805847188,0.041577489050116344,0.05132710076733537,0.04460326178204499,0.3459875367110598,0.2878942644591734,10.10608894517638,0.057063308379396986,0.10792986670844136,0.019856323763519125,-0.5504053511699406,-0.2408077742485777,9.58898358239173,-0.07598624879859038,-0.05587119335637081,-0.10504756944195276,38.91135012639162,0
-0.0716373906853097,0.030182200620839532,9.80223430098767,0.03602302977549886,0.0022214119924100196,-0.015106409569739932,0.2557499054795744,0.12372545819317353,0.2917172777403497,0.05196778873792904,0.045454613274003325,0.048678711829108004,0.4296372885737582,0.2681506594864797,10.406547358002388,0.11253881096872086,0.05666998330950856,0.07592726255263266,-0.4821728426019849,-0.1847432006397386,9.406556842708413,-0.03396405664824482,-0.1124877488436018,-0.07501826308878497,43.613130513220725,0
-0.012232269822057443,0.14999655519945448,9.8131626034249,-0.014439422840463201,0.0026426211792042395,-0.001389368194248148,0.155511946230196,0.15999561057845735,0.23309710837372674,0.02949621010582931,0.04252852671829843,0.03646444651363887,0.18993814435015466,0.5402556581803643,10.087999487239312,0.031601450980331916,0.06736970206072156,0.05918776599443901,-0.3095577048894843,-0.040786439169702336,9.378658712625876,-0.06473094841024855,-0.0685523887133398,-0.06764594241772154,47.390596578971916,0
0.02325594229439119,0.03148836098944309,9.704319000223888,-0.018561924593264816,0.012543458550439524,-0.019486656053622715,0.15824613514527905,0.1721316583975538,0.19324191469946947,0.03811502885729601,0.033450321114758944,0.04495987031932373,0.4027530724597013,0.33404355468379554,9.996494353192569,0.044982756832375397,0.06082322168194734,0.08154023291156587,-0.17788878763064872,-0.29081796528635645,9.422836810935504,-0.07953066686288363,-0.0326312993378456,-0.07012762320714487,46.8075792312496,0
0.0132458718632359,-0.0472661989383602,9.688982538636655,-0.022373458842830256,-0.011881394361808365,0.03005545080816303,0.2646302501437095,0.1611817933783361,0.3393561702353023,0.051145541478932424,0.04175424007141353,0.04974174315363057,0.409713394930439,0.2259237921036515,10.39624239474829,0.05634947660663219,0.06634832596384574,0.09058580801239502,-0.3987942945601341,-0.2629268087742757,9.365090292135575,-0.10317063045064355,-0.06358029369654045,-0.0612856029868487,41.024324338873065,0
-0.01923219826440022,-0.05870978887821933,9.880832135232707,-0.003691955873427804,-0.014356429343150864,-0.00835175821938083,0.15150298656098624,0.2159703205231322,0.2763494207125999,0.05448205163886359,0.0433189701445928,0.03557811273771686,0.17442922202396646,0.2150473361794686,10.28733953045354,0.1022656691024261,0.08127749416083156,0.061604679931241406,-0.29020075117703764,-0.45828001825477793,9.28468906572878,-0.08575884156118067,-0.06133465727602122,-0.05596157004563174,43.697526808830325,0
0.015422988105543864,-0.0010657974833500102,9.697974063652007,0.007403262869434346,-0.0107069027785284,-0.010490680455045734,0.10865945045140799,0.23213944789184326,0.3072817865933847,0.04054133325836555,0.04246192687148045,0.03871482891256377,0.10852050688221034,0.23905244628451225,10.377909841308732,0.10531061538997794,0.04442160544892885,0.058013385418708055,-0.25688148285727647,-0.42656701349405596,9.402004218649266,-0.04667715638677265,-0.09024971215173201,-0.0759635028417477,43.2771318848112,0
-0.008352629527872146,-0.10056946197355161,9.873626176456936,-0.006080947170618185,0.026011607311861744,-0.013658860501833634,0.2496907348856674,0.22531746390746443,0.21419803169205504,0.05255995649944917,0.029873426524750862,0.05655529647065381,0.4377577120695615,0.5356226862740588,10.228892842129849,0.09161084269504949,0.08789646959679562,0.0681728579226589,-0.4431969088630213,-0.3360738672114668,9.4804415926132,-0.07751296431662849,-0.006200352521426817,-0.09660649267235141,41.59511308254438,0
-0.018177057109187274,0.02110397842976861,9.877929019478325,-0.007657428477125925,-0.01577943837298415,0.00644732986026581,0.22749880544405857,0.22819357831719247,0.45957038484452845,0.04949102934423335,0.04096589747703513,0.04718584370227715,0.24798330735784094,0.3353604194925197,10.796580164896735,0.07283068885939646,0.06469294312773748,0.09178225409718545,-0.6173929468790569,-0.393659698892134,9.19044484753508,-0.10339828737392381,-0.09021069215304861,-0.07839951882927691,41.87116422070316,0
0.09289772901952145,-0.1738580729947833,9.83040263112546,-0.036715572549747735,-0.0015746664935568707,-0.0005710870022871434,0.20596953561679884,0.1631904948466405,0.15924807780889028,0.043663637343101094,0.03806742038722825,0.047126957532504114,0.6177115600595555,0.04053360136289565,10.012998119944925,0.02607683326902728,0.0560117559299169,0.09210521935231425,-0.08752898904247908,-0.45290254771282284,9.512332725750557,-0.13652471165898925,-0.057540579468696965,-0.09222713406021196,48.317606300826796,0
0.08316235997978268,-0.05828631746448332,9.84077548887593,0.015099858483043432,-0.005715458833806858,0.026983783312702042,0.1783020594092026,0.17201246499060485,0.2769862609973358,0.03455999272299971,0.05756527194544636,0.05174753151078486,0.2733567184550591,0.3132818388934821,10.218977021615185,0.069327713919569,0.07711203846262824,0.11608836652631581,-0.24371100258653688,-0.29340939711673036,9.444447544262486,-0.0405787831188881,-0.0996984994538148,-0.07324272302420347,48.93612107421713,0
-0.004013424055527612,0.11169949667755467,9.725190574875018,-0.019725289994500746,0.00288460991158145,0.011059325685125073,0.2623181820818121,0.24189844409816214,0.22467056842003208,0.02530166996456856,0.05012534571706859,0.04123636688382774,0.4525172838177078,0.6331911680602529,10.060428303388846,0.023019711555899963,0.07578091653165267,0.06676904223224268,-0.4106940993403108,-0.20536174986202727,9.352504638018576,-0.05919397121328856,-0.08116862049934262,-0.08366770818219318,44.80302597785253,0
0.007719510828320221,0.08909009961820011,9.82593570680054,-0.00249501641998461,-0.0031759263069758544,-0.007184093515294953,0.13276431112593784,0.18740407787844757,0.24650321662548746,0.0427764043395041,0.037932080286278536,0.037399073756047216,0.22062139536884917,0.4414036318647173,10.34228160611391,0.10537508544513191,0.052432457341140895,0.06647239018610222,-0.20080291947744927,-0.21157155784775875,9.441156827840501,-0.06608899480741069,-0.059712011573973434,-0.056113806026331786,43.480425431641734,0
-0.11959960117205315,0.09297912192295177,9.808342020570816,0.007834062014244273,-0.003652647460824686,-0.001015179628069847,0.1652545233247245,0.17710597294186314,0.42173070377031924,0.054958877322501265,0.06712140803458967,0.05873904013206408,0.20495935505710838,0.34439053662512004,10.466994960350103,0.0928185606864019,0.08429122832971757,0.12793937176194306,-0.34152626394068186,-0.2219981027334773,9.360399314917764,-0.11776257857655337,-0.11711326271989796,-0.06818805489946704,45.72987885566575,0
-0.011378411284894526,-0.03760321912958927,9.683495824725568,-0.0021906384572262347,-0.0024757442206448507,-0.003151122190030383,0.21630479842427186,0.18259009998228914,0.3023858305541011,0.0398578211331045,0.06460931501469615,0.050438759743262625,0.2841288219139861,0.25645406275889837,10.207712224839446,0.06800314186483884,0.11254667413355622,0.10979127636373172,-0.3234182862651862,-0.33400270075832467,9.19433686921169,-0.06618963183180762,-0.13181566309343795,-0.07285351837809512,43.307094882749084,0
-0.05788660947886596,-0.10360770323823523,9.914561607586236,-0.023478264624269097,-0.022285891939060592,-0.009750126463583988,0.1831115466247424,0.13833005990921704,0.3664970021290187,0.022667653890931724,0.04240094431169573,0.04489288669873435,0.24375734311373193,0.04549992795503871,10.431438741785426,0.004147263769299423,0.04652960923907542,0.04802050330430709,-0.3552118622778838,-0.40953750193376176,9.168640367703604,-0.06425052975821403,-0.0880513147470999,-0.06977562061814072,40.85122814413095,0
-0.057783338215838545,0.16065157426217352,9.76726181817802,0.0033322390771278985,-0.007690993080524467,-0.03447932805806651,0.16539867995106527,0.1322720074360528,0.21140526191824627,0.050688794943744675,0.04699212499187078,0.04990137766327294,0.25766368300438963,0.4189605415662097,10.034517563381506,0.09533267044001563,0.07867156261506814,0.04145725726638771,-0.25936800076576183,-0.11693371450164353,9.459333140774172,-0.06430748997429774,-0.07224260844213301,-0.11530489284169357,41.71203345664704,0
-0.11897136352322683,-0.017372230405615294,9.744147187060058,-0.028981472797691678,-0.0010956930514903367,0.008834226390503913,0.16720316645649486,0.18116735491784114,0.29124959263065053,0.04670968452227167,0.035336967244303755,0.04400950783543184,0.18035513566042652,0.36135785098941836,10.305486632207508,0.04884781930603985,0.052721602098191336,0.08095639916731932,-0.3330612337646416,-0.34237828172743656,9.189255577276583,-0.11429097447543307,-0.05044293632913484,-0.04599210384685537,45.83652356312554,0
0.05532899848515586,0.0040053997781990675,9.887990283543946,0.03672735509939211,-0.006431728609402056,-0.022655481433230793,0.20030457624153747,0.1402926530941252,0.44338197660128914,0.04027049063332367,0.033367957141720694,0.029653404496981825,0.37301140140767985,0.27847980057289895,10.608324033204047,0.1064929384182149,0.05121998675103964,0.023185398049198287,-0.34386943871582876,-0.23739137184213932,9.271001380149155,-0.009159009825141616,-0.05595121956187278,-0.07320189752864248,43.74888314290541,0
0.05632437085438341,-0.1680658911587723,9.750080677158392,0.020010304047819897,0.01275313378863815,-0.02867448051661972,0.24496309737306735,0.2112890113398261,0.30849503484476704,0.05268891655440332,0.03175023478341758,0.05121694487425186,0.35545942553822407,0.0792355556003757,10.170538506080051,0.10579093009842287,0.06071511042548621,0.04251971203710925,-0.37570428603323125,-0.4677590207642601,9.27836808107135,-0.0698889169711257,-0.028413920999668746,-0.11685659024246181,51.201726955615676,0
0.027543581626359843,0.0875912669872294,9.902233108397775,0.02281090401470067,0.0029214741126031333,-0.017012994707934055,0.17699415441185584,0.15271813933074593,0.32655308200087335,0.05007622079336414,0.027150954332010528,0.034618684533335276,0.18957489422978968,0.40259238949562415,10.658826778027473,0.09558125607714117,0.04032421511917589,0.039565850006973415,-0.3259634617586387,-0.1568041338883032,9.55578643064314,-0.07783816594435446,-0.04112827482501202,-0.08633908462347055,48.68378788089094,0
-0.053585800713554586,-0.09891137487972457,9.876446309265344,0.0049151495255244,-0.01382497849671702,0.018065972701051338,0.13848406908612285,0.1947326453528587,0.3341528667795225,0.05256998651405671,0.029675215227640103,0.042769040755121425,0.2371256975539751,0.13823907534120236,10.381728650554829,0.08142521308727624,0.021741838224622292,0.069092389339157,-0.2115516575366696,-0.4951519313318401,9.244986547059401,-0.09776158879419666,-0.07203075971108651,-0.07076816712541754,42.41269379193577,0
-0.06293022144872377,-0.0058178592869583875,9.907506409353255,0.01252413753011285,-0.003981932735430302,0.014177728586303163,0.15798216613181362,0.17039735577184534,0.36475454424254483,0.03966809463994392,0.028080654918556852,0.061497175227792536,0.13082140053669755,0.238282520415397,10.525783080479144,0.09626483794136086,0.05232122375828955,0.09712475795632142,-0.36935574920537817,-0.24282477241074188,9.332783587239694,-0.07034347269285478,-0.035266338522463664,-0.07971056693652778,43.76955631658063,0
0.02833273976640261,-0.005199501594357167,9.882001893151747,-0.02839629470828537,0.006195575841225718,0.006807840585682628,0.1431567154492357,0.09985923967757454,0.3518033776911498,0.04919395737486039,0.04285996839124742,0.05591964871476891,0.21979120486653245,0.1870935488799248,10.465615191469611,0.08660185709553127,0.05032804634659689,0.13722988416060222,-0.27161830935887693,-0.13082684347825954,9.311199668193435,-0.09903153550520805,-0.106622630605535,-0.06446299253716245,44.02133181261435,0
-0.011529759937358603,-0.016262155870631487,9.82523597038038,0.006485623214478148,0.02032716618449884,0.010689223925389435,0.1750999320697939,0.16134896731020712,0.20683216445134306,0.049709490860618134,0.06902517250596428,0.044686656832650565,0.24043644818261287,0.3608504157670787,10.104305938663426,0.0847348554438961,0.14676195008139462,0.07871689854134224,-0.27435345617194423,-0.2253842137672869,9.410451948805997,-0.08426944378959145,-0.11919366459012914,-0.05308030678206687,40.401272634021396,0
-0.028147363135143672,0.023618837422199446,9.720232543442515,0.036262261021467526,0.011003471207121418,0.002374729944253221,0.18671398918923984,0.15278648499379052,0.328598742116294,0.056261763820621834,0.05076001068645546,0.052924420076068956,0.23662302149276912,0.288866793494131,10.22561988972219,0.10843376740364433,0.08517596526335697,0.06690159136119742,-0.32368093560179323,-0.15785162024973012,9.162291275854365,-0.04683131954082842,-0.08442687187044844,-0.08780001294030969,49.71503456060075,0
-0.035718928185274584,0.021397923817438345,9.86200872641197,-0.013915007374935316,0.013677839321999133,-0.01212133767344571,0.16983840784627358,0.19070150406914677,0.21415984742008273,0.04484129312680795,0.06951673924268918,0.062598730218011,0.20100004415274136,0.3692584879935297,10.242293405769228,0.08305405662639738,0.10265520645976407,0.07469746190587782,-0.3043172413700923,-0.28583417581251386,9.521621800027567,-0.07585266009688921,-0.12157305427028445,-0.12883250867164364,49.47559662344559,0
-0.022226194120134123,0.015269721332980223,9.735289609898468,-0.007876057347195344,0.029572425914331502,-0.008104913190812243,0.1714393293768558,0.22218438709962526,0.35427017438372493,0.06396350259819215,0.05384190842360015,0.056040915152483745,0.24378764347789145,0.4091666542284931,10.441159114444094,0.1175170853473357,0.13094291637579866,0.0674943720739397,-0.2778466733505171,-0.38891409010652866,9.287420257337631,-0.0981357678045614,-0.06059232071945367,-0.11284353074024733,41.8351359083124,0
0.0005224001803840028,0.04424163793309668,9.858696457930046,-0.03567864185866545,0.005717955199729233,0.002687680898388492,0.11114314228855904,0.18700910718405328,0.1972412176410918,0.04902382380629771,0.02655049766621889,0.05532050533367558,0.21685066993782598,0.3409798413764433,10.126338223778923,0.07833516230995978,0.05602886277817799,0.10179518986057656,-0.1342931046866183,-0.19884936837062497,9.504586173685674,-0.10004340129575413,-0.03178236972730008,-0.11115851671220144,42.886493522540015,0
0.05854099096131495,0.012034849581257325,9.883437893326052,-0.0027958519387286263,0.01051674319135781,-0.023673363101628167,0.11889243695310557,0.16931598848813229,0.12193227687598945,0.03320658638686846,0.060770744116271945,0.045059323582610736,0.3750969945335614,0.3430108292200333,10.055476558096855,0.0376880253931544,0.10055202466074736,0.0324782635415803,-0.08084364352484685,-0.20492706215144466,9.696760758599174,-0.060166070675088716,-0.08278520040410851,-0.10318129693982424,48.00574879994036,0
-0.120044154659256,-0.057026008651007376,9.532461927326015,-0.015779807734713415,0.008126874094045307,0.01242129129679012,0.2759977873958141,0.16627326125566583,0.16940156722479568,0.04271464654107266,0.054619714789758,0.03842565659346318,0.38459625934123426,0.21126782923366189,9.809845371885626,0.04544115181551633,0.11713613775151968,0.0976322429729989,-0.4988701726280511,-0.2819395004002607,9.184382993870146,-0.09293604026930881,-0.05643591919525395,-0.030180368638242135,45.50795265834887,0
0.07766687771745162,0.009608306402785304,10.032141505812014,-0.025079164696569338,-0.002135315096912932,0.005406266610168252,0.19142253845597057,0.13220898279884888,0.3285157000571653,0.03559673449518698,0.0527446167684483,0.05059288387792504,0.3508459202636932,0.26939516067716385,10.587806624663674,0.023907105635426903,0.09234432952226883,0.12184074398796273,-0.2831300405683403,-0.18933471141739666,9.408695786966645,-0.09256718902408904,-0.10209451391368954,-0.06610325705277163,43.47787828223893,0
-0.005297155894856176,0.07729446641906232,9.846006845352301,-0.031101044187998046,0.004772910736803712,0.018380611698916118,0.1919209823458104,0.1802354496843707,0.18294371697039383,0.029193037832829834,0.05138749836656676,0.02555236001589542,0.3984297773415328,0.3887204598852941,10.149931579162171,0.016236336323957382,0.07788373091160478,0.07684599988262464,-0.2337670400422896,-0.19015700589725268,9.581182090966605,-0.07849132260191048,-0.08514918451249466,-0.03037872952106336,43.65741033448991,0
-0.033504448048142656,-0.03573347244452507,9.521548782072811,0.00884656636880128,-0.022236262456564838,0.005755307627376282,0.15532013699970104,0.18917386242266954,0.3131205290815094,0.036698545800572024,0.04322014329438513,0.03800423913019349,0.23209496230221763,0.35372475572983525,10.206432494473988,0.0943969920556528,0.08050825056981194,0.0704607109566661,-0.32293285661101356,-0.3235066647520701,9.076943414987605,-0.055248744461196056,-0.08970341153816122,-0.06712255845167094,47.670040229630004,0
-0.0464301316720057,-0.02216033135810632,9.718256669254263,0.022622540947942638,-0.026552972218385394,0.016350761830469684,0.12902894276650986,0.10287454398837681,0.2141261769788959,0.05278592399284699,0.06801031705524381,0.04910861043891373,0.14522123970926856,0.1397281493187975,10.051142129884049,0.09119470281104376,0.07683158645828371,0.08456947697232764,-0.2648359020519095,-0.21373347780999247,9.321502267375907,-0.10976455424156367,-0.1840535770234215,-0.051971956513993924,40.9578531711768,0
0.15963393057352682,0.05744747128347334,9.878545353719733,-0.0072152639335055085,-0.00704105087996852,0.016273072768652825,0.2308008467350827,0.17376816988531799,0.3240281425217489,0.0419802542536638,0.035134315862831125,0.04130926679063814,0.6175301479643213,0.2343241151692741,10.595672228485052,0.04693805247574895,0.0779249122922247,0.07011313130031224,-0.1290688593402266,-0.42303761804257567,9.513342507142271,-0.0675967057967239,-0.04922307884348853,-0.07586775484981308,43.21235970563855,0
-0.05624056693462078,-0.044444742259187056,9.886488119408824,-0.01558720219944191,0.006212394265366704,0.0010907801805101196,0.10649446316308606,0.1665655056922826,0.2915771968841714,0.041311244220514354,0.02470859281761773,0.04365874621552592,0.17267058735843427,0.3285052195698176,10.37395017435734,0.044345243283646654,0.040498578441487375,0.09187216961989622,-0.20947820838364795,-0.22460577897353162,9.342302195759828,-0.08778253789643177,-0.033069543344558625,-0.06913042028804897,44.25113353625237,0
-0.033049751731188196,0.01965826595007895,9.755192315001747,-0.016380714378408243,-0.0035860189362847752,-0.00945676229667529,0.13775728532792428,0.23102059197918284,0.24235516794536854,0.036946959469448634,0.05190420906731914,0.040418875728168484,0.26338716383803185,0.6152810950046037,10.136534686490204,0.04218560821177322,0.07591782583653012,0.05788492524471198,-0.2336133510940858,-0.22527750476970063,9.389010945332473,-0.0820664315140207,-0.08078208264483261,-0.06309578892542965,44.43729413882689,0
0.0683120801345668,0.02269324238478723,9.863329188751058,-0.010000979733091837,-0.0005241414333382068,0.012746877009108828,0.17772070534872733,0.1291958695835786,0.23626613574224914,0.061938482420016636,0.049315218699053955,0.03668003059282748,0.3577289834952409,0.23933922064093993,10.298589183966174,0.12625657121597353,0.08064065937969345,0.09513294100582441,-0.19626815972490036,-0.17994185150784384,9.41222351455193,-0.10909679317139842,-0.07052094985067879,-0.04521175391636586,43.6808457735029,0
-0.005148199655796104,-0.06190252596628065,9.806134353965085,-0.0201751615237129,0.007672911458754479,0.010678613718947122,0.19063043153366208,0.1507721852046436,0.35915437601819683,0.045176997289215516,0.054612525726271094,0.0561614362700682,0.41792118812544904,0.1624397205514766,10.543221849973012,0.05643034593107487,0.12586263995207542,0.09412004354881533,-0.17794534045113408,-0.3409693027147433,9.329188223509448,-0.11806357096312155,-0.06978410684877061,-0.08099325332823883,43.821426280835674,0
0.009032875574749742,-0.005627314499833716,9.71055315030589,0.015521993132081838,0.012165738036722102,-0.0064982028903305625,0.21703179713487497,0.2279911979800093,0.2789735463111003,0.051317011670359264,0.05878278521648938,0.0369014123771853,0.21500606605638306,0.36550890867803876,10.096240785422207,0.08539385492165644,0.13435990395322314,0.06719896451688183,-0.5640189629272958,-0.2922431333836221,9.210752069387487,-0.08320321301287442,-0.07113429383149067,-0.08618366294673734,49.35744630435138,0
0.016953773578144687,-0.012774417894010981,9.853142216517826,0.005011154389387167,-5.131451064681065e-05,-0.019912955806229166,0.19866190260523728,0.11948677728723539,0.3543813180075545,0.03900112428909981,0.05110993569064708,0.039767572938004134,0.47372432958897837,0.1587373323412287,10.547044192632452,0.055850450388795506,0.1265505474717423,0.07959909137267591,-0.27499729037761944,-0.2248888112288214,9.346416384849496,-0.07979892392802533,-0.05701382864420823,-0.06977007635718965,42.30395390867136,0
0.01282559641000886,-0.014916596287028152,9.780850721426877,-0.011764637194772904,0.006558972912363269,0.008166891077087225,0.1903101092994442,0.17816251625606042,0.14508310838716632,0.028165297246161933,0.03812560005107222,0.0512392497823129,0.25135618907614127,0.2761619478927032,10.008154134106896,0.025110063659243564,0.08828750173096875,0.07153021197808866,-0.2856855702477677,-0.2468694757065554,9.469183558918765,-0.057784868789368594,-0.04415277286842643,-0.0891813014300489,45.21945852747111,0
0.03440730375654523,0.07038139109267998,9.830661359564917,0.0019864681452136566,-0.011584367971054752,0.038203257992452,0.24783147583100062,0.2674468691384834,0.22263895141588746,0.03937144043534676,0.06059763438219444,0.0374077170322468,0.457704770421939,0.4725774435534069,10.158878535094145,0.07585271532510889,0.06475994613443503,0.08274590231338289,-0.4642979985051279,-0.3160334858538708,9.407668068762186,-0.06522718338610727,-0.12841564221303892,-0.053294197590042884,44.97356982690731,0
-0.07940526879019828,0.0645719130030203,9.750802341268374,0.005898811801536288,-0.011254777392628226,-0.001610526453886109,0.13086024136506538,0.2054653767307785,0.21426735272673894,0.052310386828692365,0.04281311875461787,0.05346500623973253,0.13937823929866386,0.3582440410998652,10.125100802226552,0.09808036066997108,0.02179465834669335,0.07553487696454547,-0.317806647527064,-0.3072135186337946,9.42838774821344,-0.09677403414811825,-0.13136545084295687,-0.10458433539424294,41.16896613491679,0
0.08145887166909917,-0.0379407690336665,9.809151656855493,-0.00830486741248843,0.013339878364807729,-0.019372237340779367,0.18758677738643167,0.15849197690613848,0.3502698986660642,0.03664594336078997,0.050441374764755506,0.03204860993672138,0.346726664719531,0.24559029666213564,10.451134705294383,0.04108775915494747,0.09596294565335445,0.05175161393631932,-0.23586878569176528,-0.23150998805784861,9.363133083320177,-0.0552710247454411,-0.0731495478492458,-0.06524203255025911,45.38814873498586,0
-0.09717344525310646,-0.050333939183814326,9.706844083150989,0.008934020527054625,-0.021438728343588752,0.001788691639282387,0.15623220474792557,0.22778427933908596,0.3122580069876817,0.041151824210955514,0.040724635458721764,0.05900530594204229,0.25033105414647455,0.3659509677608131,10.26559309812363,0.07937673153640379,0.06022761910158589,0.09975473104651812,-0.32617285370894467,-0.287555185432318,9.295513131774307,-0.05412232595584229,-0.07372701669857173,-0.1181900802051999,38.82516220678967,0
-0.0014885050945406542,-0.0639499488322515,9.943607452019684,0.01621965834186989,-0.011451965965968461,-0.012158447155341104,0.2587279685292296,0.24123370513080022,0.24504201975563297,0.05484900032766967,0.039840392235448975,0.05503019344840772,0.3675306352404695,0.34930797797010815,10.50091248649247,0.1368808485130334,0.04372564461056319,0.05827309467120544,-0.492864494964927,-0.45441913488121327,9.709604050902813,-0.054144863599077254,-0.1111005829236038,-0.09744422185112361,49.619968053938,0
-0.006340220775789343,0.0013031733311014738,9.5312042089311,0.00025514389914226487,0.001047040305505359,0.005744318911132334,0.1343029231172769,0.23258089661311512,0.17213823047576618,0.03738448501383491,0.03444710027967224,0.040950926267444634,0.19832521955995888,0.4466458887747675,9.753961614498193,0.06089951407768184,0.06465375557292193,0.08144989476063734,-0.27960183830056756,-0.3494664014899529,9.23503516965516,-0.07389810723294475,-0.05035351347682504,-0.049929362582825224,49.25854448164953,0
0.06428955803802323,0.057149956642117375,9.760064733841618,-0.01652695341928618,-0.016261514566464588,0.0056451817531201634,0.23468144335246843,0.17065075391553722,0.1985431545842869,0.055890518927166614,0.025245786351167133,0.026303500833050282,0.5644104637488563,0.35875287853393734,10.112024090635783,0.06433856052683937,0.0324156780001051,0.039173722504697146,-0.2170004367825903,-0.28397798007537595,9.509798161098537,-0.10186706385692244,-0.04761333449833119,-0.04128320919705414,41.88927515579546,0
-0.01118660895812898,-0.12463008365713968,9.938055208041344,0.00016356825881275045,0.024579840564605788,-0.013993137889101382,0.1542304663138514,0.24375149106352187,0.25859349435039247,0.05501209850055013,0.050185986344453974,0.05152444184083601,0.36199747182857867,0.3564671639524298,10.454949620676135,0.07325044270097134,0.10224667080985793,0.0605831293722549,-0.2253200500326846,-0.45950669851108483,9.48190521709807,-0.09616748285351777,-0.042325429605229725,-0.0855764778859644,45.982128784507985,0
-0.005061583510559811,0.020433041502139142,9.92097658600766,-0.015222179549736665,0.009982786462942633,0.0062092809304254235,0.18500013281939254,0.10059318007575867,0.3372597737188857,0.03386871029271319,0.05754079572123266,0.021173327065910366,0.282512721020591,0.2135329015741371,10.31474052215926,0.045118941616871466,0.08383118142888513,0.03234606505103301,-0.3860802825596783,-0.18155490406722702,9.225330462201963,-0.06866959380280384,-0.1040362385277634,-0.024757618846495126,45.30039515114244,0
0.04170480528517788,-0.029145310253498858,9.911920575152509,0.015383071435100992,0.03355436246440838,-0.004132702334759115,0.1351776748853666,0.21400160091180473,0.27038957027377836,0.04553489050210679,0.0304363470883585,0.058536620469986735,0.26962707122084706,0.22662752463474908,10.366371727374622,0.09351675819386153,0.08435151043416365,0.13289935757574872,-0.13913144291243845,-0.388881966993185,9.40334737702639,-0.06262377743334038,-0.0032744179279251065,-0.08921736240395631,47.017258688097066,0
-0.010505111282911674,-0.06361876963407755,9.817227065254338,-0.01340740832577442,0.0026443494416595486,-0.020369043486967497,0.19211336381580255,0.1176583918122576,0.25834609091519883,0.06784723370363888,0.04704778389476485,0.058270971623201696,0.33362947832308715,0.13890747134775264,10.225642311759424,0.11679418289002992,0.09305730264278204,0.04042228618317312,-0.31889086330082517,-0.21597694649827998,9.409316465041107,-0.11136635942617608,-0.07185123409740242,-0.1159785238725134,43.685862661980124,0
